loopCnt,assist_level,thighDeg_RH,incPosDeg_RH,MotorActCurrent_RH,accX_Calib_RH,accY_Calib_RH,gyroZ_Calib_RH,thighDeg_LH,incPosDeg_LH,MotorActCurrent_LH,accX_Calib_LH,accY_Calib_LH,gyroZ_Calib_LH,u_RH,u_LH,Pvector_ref_RH,Pvector_ref_LH,extension_control_mode,emg_R1,emg_L1,fsr_R1,fsr_R2,fsr_L1,fsr_L2,free_var1,free_var2
218,0.000,-3.439,-1.351,0.000,5.743,8.122,-1.999,9.174,-1.132,0.000,5.704,8.130,0.046,0.000,0.000,0.000,0.000,6,0.279,-0.695,4095,4095,3839,4095,5.676,8.057
219,0.000,-3.417,-1.329,-0.005,5.762,8.189,-1.968,9.174,-1.132,0.000,5.690,8.139,-0.046,0.000,0.000,0.000,0.000,6,0.278,-0.695,4095,4095,3835,4095,5.676,8.057
220,0.000,-3.417,-1.329,0.016,5.750,8.199,-1.999,9.174,-1.132,0.000,5.668,8.137,0.000,0.000,0.000,0.000,0.000,6,0.278,-0.695,4095,4095,3829,4095,5.676,8.057
221,0.000,-3.395,-1.329,0.005,5.757,8.204,-1.755,9.196,-1.132,0.000,5.671,8.132,0.229,0.000,0.000,0.000,0.000,6,0.278,-0.695,4095,4095,3825,4095,5.676,8.148
222,0.000,-3.373,-1.329,0.005,5.805,8.213,-1.541,9.196,-1.132,0.000,5.642,8.142,0.320,0.000,0.000,0.000,0.000,6,0.278,-0.695,4095,4095,3823,4095,5.676,8.148
223,0.000,-3.373,-1.329,-0.005,5.767,8.189,-1.541,9.196,-1.132,0.000,5.580,8.139,0.229,0.000,0.000,0.000,0.000,6,0.278,-0.695,4095,4095,3822,4095,5.676,8.148
224,0.000,-3.351,-1.329,0.000,5.726,8.194,-1.480,9.196,-1.132,0.000,5.561,8.182,0.107,0.000,0.000,0.000,0.000,6,0.278,-0.695,4095,4095,3825,4095,5.676,8.148
225,0.000,-3.329,-1.329,-0.005,5.786,8.185,-1.541,9.196,-1.132,0.005,5.563,8.213,0.168,0.000,0.000,0.000,0.000,6,0.278,-0.694,4095,4095,3825,4095,5.768,8.148
226,0.000,-3.329,-1.307,0.016,5.762,8.151,-1.450,9.196,-1.132,0.000,5.613,8.180,0.198,0.000,0.000,0.000,0.000,6,0.279,-0.695,4095,4095,3824,4095,5.676,8.148
227,0.000,-3.307,-1.307,0.027,5.757,8.216,-1.328,9.218,-1.132,0.000,5.664,8.168,0.290,0.000,0.000,0.000,0.000,6,0.278,-0.695,4095,4095,3822,4095,5.676,8.148
228,0.000,-3.307,-1.307,-0.016,5.771,8.230,-1.144,9.218,-1.132,0.005,5.589,8.187,0.351,0.000,0.000,0.000,0.000,6,0.278,-0.695,4095,4095,3817,4095,5.768,8.148
229,0.000,-3.285,-1.307,0.000,5.757,8.213,-0.961,9.218,-1.132,0.000,5.553,8.166,0.259,0.000,0.000,0.000,0.000,6,0.278,-0.695,4095,4095,3815,4095,5.676,8.148
230,0.000,-3.263,-1.307,0.000,5.853,8.245,-0.870,9.218,-1.132,0.000,5.558,8.151,0.168,0.000,0.000,0.000,0.000,6,0.278,-0.695,4095,4095,3815,4095,5.676,8.148
231,0.000,-3.263,-1.307,0.000,5.846,8.271,-0.931,9.218,-1.132,-0.016,5.561,8.149,0.229,0.000,0.000,0.000,0.000,6,0.278,-0.695,4095,4095,3814,4095,5.768,8.148
232,0.000,-3.241,-1.307,-0.016,5.759,8.254,-0.900,9.218,-1.132,0.005,5.558,8.154,0.351,0.000,0.000,0.000,0.000,6,0.278,-0.695,4095,4095,3819,4095,5.676,8.148
233,0.000,-3.241,-1.285,-0.005,5.843,8.304,-0.565,9.218,-1.132,0.005,5.518,8.178,0.473,0.000,0.000,0.000,0.000,6,0.278,-0.695,4095,4095,3814,4095,5.768,8.240
234,0.000,-3.219,-1.285,-0.016,5.798,8.280,-0.412,9.218,-1.132,0.000,5.527,8.187,0.412,0.000,0.000,0.000,0.000,6,0.278,-0.695,4095,4095,3817,4095,5.768,8.240
235,0.000,-3.219,-1.285,-0.027,5.735,8.266,-0.412,9.218,-1.132,-0.016,5.527,8.154,0.351,0.000,0.000,0.000,0.000,6,0.278,-0.694,4095,4095,3819,4095,5.676,8.240
236,0.000,-3.197,-1.285,0.000,5.802,8.312,-0.534,9.240,-1.132,-0.005,5.477,8.154,0.320,0.000,0.000,0.000,0.000,6,0.278,-0.695,4095,4095,3817,4095,5.768,8.240
237,0.000,-3.197,-1.285,0.005,5.778,8.331,-0.473,9.240,-1.132,0.005,5.458,8.206,0.473,0.000,0.000,0.000,0.000,6,0.278,-0.695,4095,4095,3813,4095,5.768,8.240
238,0.000,-3.175,-1.285,0.000,5.757,8.331,-0.473,9.240,-1.132,0.005,5.465,8.199,0.412,0.000,0.000,0.000,0.000,6,0.278,-0.695,4095,4095,3809,4095,5.676,8.240
239,0.000,-3.153,-1.263,-0.005,5.769,8.309,-0.473,9.218,-1.132,0.000,5.458,8.182,0.412,0.000,0.000,0.000,0.000,6,0.278,-0.695,4095,4095,3807,4095,5.768,8.240
240,0.000,-3.153,-1.263,-0.005,5.757,8.362,-0.443,9.240,-1.132,-0.005,5.486,8.199,0.443,0.000,0.000,0.000,0.000,6,0.278,-0.695,4095,4095,3803,4095,5.768,8.331
241,0.000,-3.153,-1.263,-0.005,5.735,8.391,-0.443,9.240,-1.132,-0.016,5.498,8.213,0.473,0.000,0.000,0.000,0.000,6,0.278,-0.695,4095,4095,3804,4095,5.676,8.331
242,0.000,-3.131,-1.263,-0.005,5.781,8.369,-0.320,9.240,-1.132,0.000,5.489,8.221,0.381,0.000,0.000,0.000,0.000,6,0.279,-0.695,4095,4095,3805,4095,5.768,8.240
243,0.000,-3.131,-1.263,-0.005,5.807,8.403,-0.259,9.218,-1.132,0.005,5.458,8.213,0.473,0.000,0.000,0.000,0.000,6,0.278,-0.695,4095,4095,3805,4095,5.676,8.331
244,0.000,-3.109,-1.263,0.000,5.762,8.367,-0.351,9.218,-1.132,-0.005,5.403,8.197,0.504,0.000,0.000,0.000,0.000,6,0.278,-0.695,4095,4095,3805,4095,5.676,8.331
245,0.000,-3.109,-1.263,0.000,5.783,8.359,-0.473,9.218,-1.132,0.000,5.419,8.216,0.595,0.000,0.000,0.000,0.000,6,0.278,-0.695,4095,4095,3804,4095,5.768,8.331
246,0.000,-3.087,-1.263,-0.005,5.817,8.391,-0.351,9.218,-1.132,0.005,5.441,8.242,0.595,0.000,0.000,0.000,0.000,6,0.278,-0.694,4095,4095,3799,4095,5.768,8.331
247,0.000,-3.087,-1.263,-0.005,5.814,8.388,-0.320,9.218,-1.132,-0.005,5.410,8.201,0.565,0.000,0.000,0.000,0.000,6,0.279,-0.694,4095,4095,3797,4095,5.676,8.331
248,0.000,-3.065,-1.241,0.005,5.755,8.415,-0.351,9.218,-1.132,0.016,5.410,8.187,0.504,0.000,0.000,0.000,0.000,6,0.278,-0.695,4095,4095,3797,4095,5.768,8.331
249,0.000,-3.065,-1.241,0.005,5.824,8.462,-0.443,9.218,-1.154,-0.016,5.395,8.221,0.412,0.000,0.000,0.000,0.000,6,0.278,-0.695,4095,4095,3795,4095,5.768,8.331
250,0.000,-3.043,-1.241,0.000,5.958,8.498,-0.198,9.196,-1.154,0.005,5.371,8.225,0.320,0.000,0.000,0.000,0.000,6,0.279,-0.695,4095,4095,3798,4095,5.768,8.331
251,0.000,-3.043,-1.241,0.000,5.814,8.470,-0.107,9.196,-1.154,0.000,5.381,8.216,0.320,0.000,0.000,0.000,0.000,6,0.278,-0.695,4095,4095,3797,4095,5.676,8.331
252,0.000,-3.043,-1.241,0.005,5.759,8.477,-0.107,9.196,-1.154,0.000,5.405,8.197,0.351,0.000,0.000,0.000,0.000,6,0.279,-0.695,4095,4095,3796,4095,5.768,8.423
253,0.000,-3.021,-1.241,0.005,5.889,8.515,-0.168,9.196,-1.154,0.000,5.477,8.204,0.381,0.000,0.000,0.000,0.000,6,0.279,-0.695,4095,4095,3794,4095,5.951,8.423
254,0.000,-3.021,-1.241,0.000,5.893,8.532,-0.137,9.196,-1.154,0.000,5.443,8.161,0.473,0.000,0.000,0.000,0.000,6,0.279,-0.695,4095,4095,3789,4095,5.768,8.423
255,0.000,-2.999,-1.241,0.005,5.798,8.561,0.076,9.196,-1.154,-0.005,5.427,8.197,0.412,0.000,0.000,0.000,0.000,6,0.279,-0.695,4095,4095,3791,4095,5.676,8.423
256,0.000,-2.999,-1.241,-0.005,5.798,8.575,0.046,9.196,-1.154,0.005,5.381,8.237,0.473,0.000,0.000,0.000,0.000,6,0.279,-0.694,4095,4095,3791,4095,5.859,8.515
257,0.000,-2.999,-1.241,-0.005,5.850,8.573,-0.046,9.174,-1.154,0.000,5.367,8.264,0.351,0.000,0.000,0.000,0.000,6,0.279,-0.695,4095,4095,3791,4095,5.859,8.515
258,0.000,-2.977,-1.241,0.000,5.853,8.594,-0.015,9.174,-1.154,0.000,5.398,8.237,0.229,0.000,0.000,0.000,0.000,6,0.279,-0.694,4095,4095,3795,4095,5.768,8.515
259,0.000,-2.977,-1.241,0.000,5.805,8.589,0.107,9.174,-1.154,0.000,5.419,8.216,0.015,0.000,0.000,0.000,0.000,6,0.279,-0.695,4095,4095,3794,4095,5.768,8.515
260,0.000,-2.977,-1.241,0.016,5.860,8.611,0.259,9.174,-1.154,0.005,5.412,8.237,0.229,0.000,0.000,0.000,0.000,6,0.279,-0.694,4095,4095,3794,4095,5.768,8.515
261,0.000,-2.955,-1.220,0.005,5.881,8.630,0.107,9.174,-1.154,0.000,5.436,8.261,0.259,0.000,0.000,0.000,0.000,6,0.279,-0.695,4095,4095,3791,4095,5.768,8.515
262,0.000,-2.955,-1.220,0.000,5.790,8.594,0.015,9.174,-1.154,-0.005,5.470,8.237,0.290,0.000,0.000,0.000,0.000,6,0.278,-0.695,4095,4095,3789,4095,5.768,8.515
263,0.000,-2.955,-1.220,0.000,5.812,8.608,0.046,9.174,-1.154,0.000,5.474,8.213,0.290,0.000,0.000,0.000,0.000,6,0.278,-0.694,4095,4095,3789,4095,5.859,8.606
264,0.000,-2.933,-1.220,0.000,5.826,8.616,0.198,9.174,-1.154,0.000,5.455,8.206,0.229,0.000,0.000,0.000,0.000,6,0.279,-0.694,4095,4095,3789,4095,5.859,8.606
265,0.000,-2.933,-1.220,-0.016,5.807,8.637,0.443,9.174,-1.154,0.005,5.436,8.221,0.443,0.000,0.000,0.000,0.000,6,0.279,-0.695,4095,4095,3793,4095,5.768,8.515
266,0.000,-2.933,-1.220,0.000,5.874,8.601,0.473,9.152,-1.154,0.000,5.398,8.259,0.595,0.000,0.000,0.000,0.000,6,0.279,-0.694,4095,4095,3794,4095,5.768,8.606
267,0.000,-2.933,-1.220,-0.005,5.838,8.616,0.259,9.152,-1.154,0.000,5.410,8.283,0.534,0.000,0.000,0.000,0.000,6,0.278,-0.694,4095,4095,3794,4095,5.768,8.606
268,0.000,-2.911,-1.220,0.016,5.846,8.652,0.229,9.152,-1.176,0.000,5.407,8.269,0.443,0.000,0.000,0.000,0.000,6,0.279,-0.695,4095,4095,3794,4095,5.768,8.606
269,0.000,-2.911,-1.220,0.005,5.865,8.644,0.351,9.130,-1.176,0.000,5.374,8.249,0.443,0.000,0.000,0.000,0.000,6,0.279,-0.694,4095,4095,3791,4095,5.859,8.515
270,0.000,-2.911,-1.220,0.016,5.846,8.649,0.565,9.130,-1.176,0.005,5.364,8.273,0.259,0.000,0.000,0.000,0.000,6,0.279,-0.694,4095,4095,3789,4095,5.768,8.606
271,0.000,-2.889,-1.220,0.000,5.824,8.642,0.626,9.130,-1.176,0.005,5.350,8.297,0.351,0.000,0.000,0.000,0.000,6,0.279,-0.694,4095,4095,3789,4095,5.859,8.606
272,0.000,-2.889,-1.220,-0.005,5.826,8.616,0.534,9.108,-1.176,0.000,5.371,8.326,0.443,0.000,0.000,0.000,0.000,6,0.279,-0.694,4095,4095,3786,4095,5.859,8.606
273,0.000,-2.889,-1.220,0.000,5.824,8.640,0.656,9.108,-1.176,0.016,5.379,8.348,0.473,0.000,0.000,0.000,0.000,6,0.279,-0.694,4095,4095,3788,4095,5.768,8.606
274,0.000,-2.889,-1.220,0.000,5.755,8.628,0.748,9.086,-1.176,0.000,5.403,8.345,0.473,0.000,0.000,0.000,0.000,6,0.279,-0.694,4095,4095,3790,4095,5.768,8.606
275,0.000,-2.889,-1.220,0.000,5.704,8.620,0.870,9.086,-1.176,0.000,5.422,8.340,0.565,0.000,0.000,0.000,0.000,6,0.279,-0.694,4095,4095,3792,4095,5.768,8.606
276,0.000,-2.867,-1.220,-0.005,5.776,8.656,1.083,9.064,-1.176,-0.005,5.417,8.336,0.443,0.000,0.000,0.000,0.000,6,0.279,-0.694,4095,4095,3794,4095,5.768,8.606
277,0.000,-2.867,-1.220,0.000,5.802,8.647,1.144,9.064,-1.176,0.000,5.410,8.343,0.412,0.000,0.000,0.000,0.000,6,0.279,-0.694,4095,4095,3795,4095,5.676,8.606
278,0.000,-2.867,-1.220,-0.005,5.723,8.597,1.236,9.064,-1.176,-0.016,5.439,8.345,0.656,0.000,0.000,0.000,0.000,6,0.279,-0.694,4095,4095,3793,4095,5.676,8.606
279,0.000,-2.867,-1.220,-0.016,5.731,8.608,1.358,9.064,-1.176,0.000,5.422,8.314,0.626,0.000,0.000,0.000,0.000,6,0.279,-0.694,4095,4095,3790,4095,5.768,8.606
280,0.000,-2.867,-1.220,0.005,5.812,8.613,1.511,9.042,-1.176,0.000,5.369,8.285,0.656,0.000,0.000,0.000,0.000,6,0.279,-0.694,4095,4095,3789,4095,5.768,8.606
281,0.000,-2.867,-1.220,0.005,5.731,8.568,1.480,9.042,-1.176,0.000,5.324,8.319,0.809,0.000,0.000,0.000,0.000,6,0.279,-0.694,4095,4095,3791,4095,5.676,8.515
282,0.000,-2.867,-1.220,-0.005,5.652,8.551,1.266,9.020,-1.176,0.000,5.412,8.326,0.717,0.000,0.000,0.000,0.000,6,0.279,-0.694,4095,4095,3793,4095,5.676,8.606
283,0.000,-2.846,-1.220,0.000,5.731,8.541,1.297,9.020,-1.176,-0.005,5.424,8.316,0.900,0.000,0.000,0.000,0.000,6,0.279,-0.694,4095,4095,3797,4095,5.768,8.606
284,0.000,-2.846,-1.220,0.005,5.733,8.541,1.450,8.998,-1.176,0.000,5.340,8.355,1.083,0.000,0.000,0.000,0.000,6,0.279,-0.694,4095,4095,3799,4095,5.676,8.515
285,0.000,-2.846,-1.220,0.005,5.704,8.568,1.541,8.998,-1.176,0.005,5.393,8.362,1.022,0.000,0.000,0.000,0.000,6,0.279,-0.694,4095,4095,3799,4095,5.585,8.515
286,0.000,-2.846,-1.220,0.005,5.683,8.520,1.602,8.976,-1.176,0.000,5.371,8.369,1.022,0.000,0.000,0.000,0.000,6,0.279,-0.693,4095,4095,3798,4095,5.676,8.515
287,0.000,-2.846,-1.220,0.000,5.745,8.510,1.541,8.976,-1.176,0.000,5.333,8.383,1.236,0.000,0.000,0.000,0.000,6,0.279,-0.694,4095,4095,3795,4095,5.676,8.515
288,0.000,-2.846,-1.220,-0.016,5.733,8.518,1.541,8.954,-1.176,0.005,5.345,8.362,1.480,0.000,0.000,0.000,0.000,6,0.279,-0.694,4095,4095,3794,4095,5.676,8.515
289,0.000,-2.824,-1.220,0.005,5.664,8.503,1.602,8.932,-1.176,0.000,5.328,8.345,1.480,0.000,0.000,0.000,0.000,6,0.279,-0.694,4095,4095,3796,4095,5.676,8.515
290,0.000,-2.824,-1.220,0.005,5.688,8.479,1.602,8.932,-1.176,0.000,5.307,8.336,1.236,0.000,0.000,0.000,0.000,6,0.279,-0.694,4095,4095,3797,4095,5.676,8.423
291,0.000,-2.824,-1.220,-0.016,5.666,8.458,1.541,8.910,-1.176,-0.005,5.302,8.331,1.266,0.000,0.000,0.000,0.000,6,0.279,-0.694,4095,4095,3802,4095,5.676,8.515
292,0.000,-2.824,-1.220,0.005,5.637,8.494,1.602,8.888,-1.176,-0.005,5.297,8.324,1.297,0.000,0.000,0.000,0.000,6,0.280,-0.694,4095,4095,3801,4095,5.585,8.423
293,0.000,-2.824,-1.220,0.005,5.575,8.482,1.755,8.888,-1.176,-0.005,5.326,8.362,1.297,0.000,0.000,0.000,0.000,6,0.280,-0.694,4095,4095,3801,4095,5.676,8.423
294,0.000,-2.824,-1.220,0.000,5.534,8.448,2.029,8.866,-1.176,0.000,5.297,8.400,1.450,0.000,0.000,0.000,0.000,6,0.280,-0.694,4095,4095,3800,4095,5.585,8.423
295,0.000,-2.824,-1.220,0.005,5.630,8.470,1.877,8.844,-1.176,0.000,5.228,8.412,1.358,0.000,0.000,0.000,0.000,6,0.279,-0.694,4095,4095,3794,4095,5.585,8.423
296,0.000,-2.824,-1.220,-0.016,5.613,8.460,1.755,8.822,-1.176,0.000,5.259,8.410,1.205,0.000,0.000,0.000,0.000,6,0.280,-0.694,4095,4095,3795,4095,5.493,8.423
297,0.000,-2.824,-1.220,0.005,5.597,8.453,1.846,8.800,-1.176,0.000,5.295,8.388,1.328,0.000,0.000,0.000,0.000,6,0.280,-0.694,4095,4095,3797,4095,5.493,8.423
298,0.000,-2.824,-1.220,0.000,5.601,8.443,2.029,8.778,-1.176,0.000,5.216,8.438,1.328,0.000,0.000,0.000,0.000,6,0.279,-0.694,4095,4095,3797,4095,5.585,8.423
299,0.000,-2.824,-1.220,-0.005,5.503,8.441,2.152,8.756,-1.176,0.005,5.233,8.410,1.358,0.000,0.000,0.000,0.000,6,0.279,-0.693,4095,4095,3801,4095,5.585,8.423
300,0.000,-2.824,-1.220,0.005,5.496,8.415,2.152,8.734,-1.176,0.016,5.271,8.391,1.389,0.000,0.000,0.000,0.000,6,0.279,-0.693,4095,4095,3801,4095,5.585,8.423
301,0.000,-2.824,-1.220,0.000,5.561,8.369,2.152,8.712,-1.176,-0.005,5.235,8.419,1.358,0.000,0.000,0.000,0.000,6,0.279,-0.693,4095,4095,3803,4095,5.585,8.423
302,0.000,-2.802,-1.220,0.005,5.597,8.388,2.274,8.690,-1.176,0.000,5.237,8.434,1.266,0.000,0.000,0.000,0.000,6,0.279,-0.694,4095,4095,3801,4095,5.493,8.423
303,0.000,-2.802,-1.220,0.000,5.477,8.403,2.274,8.668,-1.176,-0.005,5.273,8.429,1.358,0.000,0.000,0.000,0.000,6,0.280,-0.692,4095,4095,3797,4095,5.493,8.331
304,0.000,-2.802,-1.220,0.016,5.561,8.393,2.304,8.646,-1.176,-0.005,5.216,8.427,1.419,0.000,0.000,0.000,0.000,6,0.280,-0.693,4095,4095,3798,4095,5.493,8.331
305,0.000,-2.802,-1.220,0.000,5.539,8.369,2.335,8.624,-1.176,-0.005,5.190,8.443,1.328,0.000,0.000,0.000,0.000,6,0.280,-0.693,4095,4095,3799,4095,5.585,8.331
306,0.000,-2.802,-1.220,-0.005,5.362,8.355,2.274,8.602,-1.176,0.000,5.249,8.465,1.266,0.000,0.000,0.000,0.000,6,0.279,-0.693,4095,4095,3802,4095,5.402,8.331
307,0.000,-2.802,-1.220,-0.005,5.381,8.350,2.335,8.580,-1.176,0.000,5.240,8.479,1.266,0.000,0.000,0.000,0.000,6,0.279,-0.693,4095,4095,3803,4095,5.493,8.331
308,0.000,-2.802,-1.220,0.005,5.496,8.340,2.457,8.537,-1.176,-0.016,5.213,8.503,1.297,0.000,0.000,0.000,0.000,6,0.279,-0.693,4095,4095,3803,4095,5.493,8.331
309,0.000,-2.802,-1.220,-0.005,5.462,8.374,2.518,8.515,-1.176,-0.005,5.257,8.453,1.175,0.000,0.000,0.000,0.000,6,0.279,-0.693,4095,4095,3803,4095,5.310,8.331
310,0.000,-2.802,-1.220,-0.005,5.388,8.398,2.518,8.515,-1.176,0.000,5.242,8.438,1.175,0.000,0.000,0.000,0.000,6,0.280,-0.693,4095,4095,3800,4095,5.310,8.331
311,0.000,-2.802,-1.220,-0.016,5.350,8.321,2.335,8.493,-1.176,-0.005,5.225,8.482,1.266,0.000,0.000,0.000,0.000,6,0.279,-0.693,4095,4095,3805,4095,5.493,8.331
312,0.000,-2.824,-1.220,0.000,5.400,8.321,2.274,8.449,-1.176,0.000,5.216,8.510,1.389,0.000,0.000,0.000,0.000,6,0.279,-0.693,4095,4095,3805,4095,5.402,8.331
313,0.000,-2.824,-1.220,-0.016,5.479,8.369,2.243,8.427,-1.176,0.000,5.223,8.503,1.266,0.000,0.000,0.000,0.000,6,0.279,-0.692,4095,4095,3802,4095,5.310,8.331
314,0.000,-2.824,-1.220,0.005,5.379,8.338,2.213,8.405,-1.176,0.000,5.206,8.489,1.205,0.000,0.000,0.000,0.000,6,0.279,-0.693,4095,4095,3803,4095,5.310,8.240
315,0.000,-2.824,-1.220,-0.005,5.283,8.324,2.182,8.383,-1.176,0.005,5.237,8.518,1.175,0.000,0.000,0.000,0.000,6,0.280,-0.693,4095,4095,3802,4095,5.310,8.240
316,0.000,-2.824,-1.220,-0.005,5.427,8.326,2.182,8.361,-1.176,0.005,5.273,8.486,1.083,0.000,0.000,0.000,0.000,6,0.279,-0.693,4095,4095,3805,4095,5.402,8.331
317,0.000,-2.824,-1.220,0.000,5.458,8.302,2.243,8.339,-1.176,0.005,5.254,8.484,1.114,0.000,0.000,0.000,0.000,6,0.279,-0.693,4095,4095,3807,4095,5.310,8.331
318,0.000,-2.824,-1.220,0.005,5.348,8.288,2.121,8.339,-1.176,-0.005,5.249,8.489,1.205,0.000,0.000,0.000,0.000,6,0.279,-0.693,4095,4095,3807,4095,5.219,8.240
319,0.000,-2.824,-1.220,0.016,5.362,8.264,2.060,8.317,-1.176,0.005,5.240,8.434,1.175,0.000,0.000,0.000,0.000,6,0.279,-0.693,4095,4095,3807,4095,5.402,8.240
320,0.000,-2.824,-1.220,-0.005,5.398,8.247,2.121,8.295,-1.176,-0.005,5.276,8.417,1.114,0.000,0.000,0.000,0.000,6,0.280,-0.693,4095,4095,3804,4095,5.402,8.240
321,0.000,-2.824,-1.220,0.005,5.400,8.257,2.213,8.273,-1.176,0.000,5.266,8.450,1.205,0.000,0.000,0.000,0.000,6,0.279,-0.693,4095,4095,3803,4095,5.310,8.240
322,0.000,-2.824,-1.220,0.000,5.376,8.225,2.152,8.273,-1.176,0.005,5.249,8.498,1.236,0.000,0.000,0.000,0.000,6,0.279,-0.693,4095,4095,3805,4095,5.310,8.240
323,0.000,-2.824,-1.220,0.005,5.374,8.245,2.152,8.251,-1.176,0.016,5.242,8.482,1.175,0.000,0.000,0.000,0.000,6,0.279,-0.693,4095,4095,3808,4095,5.310,8.240
324,0.000,-2.824,-1.220,0.005,5.333,8.273,2.121,8.229,-1.176,0.000,5.257,8.438,1.083,0.000,0.000,0.000,0.000,6,0.280,-0.693,4095,4095,3811,4095,5.310,8.240
325,0.000,-2.824,-1.220,0.000,5.290,8.271,2.152,8.207,-1.176,0.005,5.280,8.438,0.961,0.000,0.000,0.000,0.000,6,0.280,-0.692,4095,4095,3813,4095,5.310,8.148
326,0.000,-2.824,-1.220,-0.005,5.391,8.302,2.029,8.207,-1.176,0.000,5.283,8.403,0.961,0.000,0.000,0.000,0.000,6,0.279,-0.693,4095,4095,3813,4095,5.310,8.240
327,0.000,-2.824,-1.220,0.005,5.374,8.338,1.999,8.185,-1.176,-0.005,5.216,8.441,0.992,0.000,0.000,0.000,0.000,6,0.279,-0.692,4095,4095,3810,4095,5.310,8.240
328,0.000,-2.824,-1.220,-0.005,5.235,8.338,2.060,8.185,-1.176,0.000,5.213,8.503,0.931,0.000,0.000,0.000,0.000,6,0.279,-0.693,4095,4095,3807,4095,5.219,8.240
329,0.000,-2.846,-1.220,0.005,5.278,8.302,2.182,8.163,-1.176,0.016,5.283,8.453,1.022,0.000,0.000,0.000,0.000,6,0.280,-0.693,4095,4095,3807,4095,5.310,8.240
330,0.000,-2.846,-1.220,0.005,5.338,8.280,2.152,8.141,-1.176,0.000,5.264,8.422,0.839,0.000,0.000,0.000,0.000,6,0.280,-0.693,4095,4095,3807,4095,5.310,8.331
331,0.000,-2.846,-1.220,0.005,5.326,8.261,2.182,8.141,-1.176,0.000,5.288,8.450,0.839,0.000,0.000,0.000,0.000,6,0.280,-0.692,4095,4095,3808,4095,5.219,8.331
332,0.000,-2.846,-1.220,0.000,5.383,8.269,1.999,8.119,-1.176,0.005,5.276,8.434,1.114,0.000,0.000,0.000,0.000,6,0.280,-0.693,4095,4095,3813,4095,5.219,8.240
333,0.000,-2.846,-1.220,0.005,5.350,8.288,2.029,8.119,-1.176,0.000,5.252,8.405,1.114,0.000,0.000,0.000,0.000,6,0.281,-0.692,4095,4095,3813,4095,5.310,8.240
334,0.000,-2.846,-1.220,0.005,5.340,8.300,2.029,8.097,-1.176,-0.005,5.285,8.417,0.931,0.000,0.000,0.000,0.000,6,0.280,-0.692,4095,4095,3813,4095,5.310,8.240
335,0.000,-2.846,-1.220,-0.005,5.352,8.300,2.182,8.097,-1.176,0.000,5.276,8.412,0.961,0.000,0.000,0.000,0.000,6,0.280,-0.692,4095,4095,3811,4095,5.310,8.240
336,0.000,-2.846,-1.220,0.000,5.264,8.304,2.213,8.097,-1.176,0.005,5.285,8.422,0.992,0.000,0.000,0.000,0.000,6,0.280,-0.692,4095,4095,3809,4095,5.310,8.240
337,0.000,-2.867,-1.220,0.000,5.249,8.283,2.060,8.075,-1.176,0.000,5.283,8.410,1.022,0.000,0.000,0.000,0.000,6,0.280,-0.692,4095,4095,3808,4095,5.310,8.240
338,0.000,-2.867,-1.220,0.000,5.309,8.285,1.968,8.075,-1.176,0.005,5.288,8.362,1.083,0.000,0.000,0.000,0.000,6,0.280,-0.692,4095,4095,3809,4095,5.310,8.240
339,0.000,-2.867,-1.220,0.000,5.288,8.297,2.090,8.075,-1.176,0.000,5.348,8.302,1.205,0.000,0.000,0.000,0.000,6,0.279,-0.692,4095,4095,3811,4095,5.219,8.240
340,0.000,-2.867,-1.220,0.005,5.269,8.276,2.152,8.075,-1.176,0.000,5.319,8.321,0.931,0.000,0.000,0.000,0.000,6,0.279,-0.692,4095,4095,3814,4095,5.219,8.240
341,0.000,-2.867,-1.220,0.005,5.280,8.218,2.213,8.075,-1.176,0.005,5.278,8.376,0.900,0.000,0.000,0.000,0.000,6,0.280,-0.692,4095,4095,3815,4095,5.310,8.240
342,0.000,-2.889,-1.220,-0.005,5.314,8.269,2.121,8.075,-1.176,0.005,5.261,8.391,1.053,0.000,0.000,0.000,0.000,6,0.280,-0.691,4095,4095,3814,4095,5.219,8.240
343,0.000,-2.889,-1.220,0.005,5.273,8.269,2.182,8.075,-1.176,0.000,5.295,8.343,1.144,0.000,0.000,0.000,0.000,6,0.280,-0.692,4095,4095,3813,4095,5.219,8.240
344,0.000,-2.889,-1.220,0.000,5.240,8.261,2.060,8.053,-1.176,0.000,5.245,8.371,1.114,0.000,0.000,0.000,0.000,6,0.280,-0.692,4095,4095,3810,4095,5.219,8.148
345,0.000,-2.889,-1.220,0.000,5.266,8.257,1.968,8.053,-1.176,0.005,5.199,8.386,1.022,0.000,0.000,0.000,0.000,6,0.280,-0.692,4095,4095,3811,4095,5.310,8.240
346,0.000,-2.911,-1.220,0.005,5.211,8.225,1.999,8.031,-1.176,0.000,5.185,8.359,0.931,0.000,0.000,0.000,0.000,6,0.280,-0.692,4095,4095,3813,4095,5.219,8.240
347,0.000,-2.911,-1.220,-0.016,5.247,8.223,1.968,8.031,-1.176,-0.005,5.261,8.348,0.992,0.000,0.000,0.000,0.000,6,0.279,-0.692,4095,4095,3815,4095,5.219,8.240
348,0.000,-2.911,-1.220,0.005,5.312,8.213,2.152,8.009,-1.176,-0.005,5.242,8.386,1.083,0.000,0.000,0.000,0.000,6,0.280,-0.692,4095,4095,3818,4095,5.219,8.240
349,0.000,-2.911,-1.220,0.000,5.199,8.197,2.304,8.009,-1.176,0.000,5.197,8.446,0.900,0.000,0.000,0.000,0.000,6,0.280,-0.692,4095,4095,3817,4095,5.127,8.148
350,0.000,-2.911,-1.220,-0.016,5.144,8.194,2.213,7.987,-1.176,0.000,5.199,8.443,0.992,0.000,0.000,0.000,0.000,6,0.280,-0.691,4095,4095,3818,4095,5.219,8.148
351,0.000,-2.933,-1.220,0.000,5.245,8.228,2.090,7.987,-1.176,0.005,5.175,8.427,1.114,0.000,0.000,0.000,0.000,6,0.279,-0.692,4095,4095,3817,4095,5.127,8.148
352,0.000,-2.933,-1.220,0.000,5.197,8.216,2.090,7.965,-1.176,0.000,5.161,8.429,1.022,0.000,0.000,0.000,0.000,6,0.280,-0.691,4095,4095,3819,4095,5.127,8.148
353,0.000,-2.933,-1.220,-0.005,5.137,8.209,2.090,7.943,-1.176,-0.005,5.173,8.450,0.992,0.000,0.000,0.000,0.000,6,0.280,-0.691,4095,4095,3816,4095,5.127,8.148
354,0.000,-2.955,-1.220,0.000,5.185,8.197,2.090,7.921,-1.176,0.000,5.201,8.462,0.870,0.000,0.000,0.000,0.000,6,0.280,-0.692,4095,4095,3813,4095,5.219,8.148
355,0.000,-2.955,-1.220,0.005,5.225,8.178,2.152,7.921,-1.176,-0.016,5.199,8.448,0.992,0.000,0.000,0.000,0.000,6,0.280,-0.691,4095,4095,3814,4095,5.127,8.148
356,0.000,-2.955,-1.220,0.000,5.161,8.178,1.938,7.899,-1.176,0.016,5.223,8.443,1.083,0.000,0.000,0.000,0.000,6,0.280,-0.691,4095,4095,3814,4095,5.127,8.148
357,0.000,-2.977,-1.220,0.000,5.144,8.185,1.755,7.899,-1.176,0.000,5.290,8.427,1.022,0.000,0.000,0.000,0.000,6,0.280,-0.691,4095,4095,3816,4095,5.127,8.148
358,0.000,-2.977,-1.220,0.000,5.149,8.154,1.785,7.877,-1.176,0.005,5.252,8.419,1.175,0.000,0.000,0.000,0.000,6,0.280,-0.691,4095,4095,3819,4095,5.219,8.148
359,0.000,-2.977,-1.220,0.000,5.151,8.151,1.816,7.877,-1.176,0.000,5.249,8.419,1.053,0.000,0.000,0.000,0.000,6,0.280,-0.691,4095,4095,3818,4095,5.127,8.148
360,0.000,-2.999,-1.220,0.000,5.115,8.189,1.724,7.877,-1.176,0.000,5.295,8.446,1.144,0.000,0.000,0.000,0.000,6,0.280,-0.692,4095,4095,3819,4095,5.127,8.148
361,0.000,-2.999,-1.220,0.000,5.108,8.156,1.785,7.855,-1.176,0.000,5.261,8.455,1.083,0.000,0.000,0.000,0.000,6,0.280,-0.691,4095,4095,3815,4095,5.127,8.148
362,0.000,-3.021,-1.220,0.000,5.218,8.154,1.785,7.855,-1.176,0.000,5.254,8.460,0.900,0.000,0.000,0.000,0.000,6,0.280,-0.692,4095,4095,3816,4095,5.127,8.148
363,0.000,-3.021,-1.220,0.000,5.091,8.118,1.511,7.855,-1.176,0.016,5.326,8.496,0.900,0.000,0.000,0.000,0.000,6,0.280,-0.692,4095,4095,3817,4095,5.035,8.148
364,0.000,-3.021,-1.220,0.000,5.111,8.134,1.480,7.855,-1.176,0.000,5.333,8.482,0.870,0.000,0.000,0.000,0.000,6,0.280,-0.691,4095,4095,3817,4095,5.035,8.148
365,0.000,-3.021,-1.220,0.016,5.211,8.185,1.633,7.833,-1.176,-0.005,5.266,8.482,0.931,0.000,0.000,0.000,0.000,6,0.280,-0.692,4095,4095,3821,4095,5.219,8.148
366,0.000,-3.043,-1.220,0.000,5.034,8.137,1.663,7.833,-1.176,0.000,5.314,8.482,0.931,0.000,0.000,0.000,0.000,6,0.280,-0.692,4095,4095,3821,4095,5.035,8.057
367,0.000,-3.043,-1.220,-0.005,5.046,8.106,1.419,7.833,-1.176,0.005,5.309,8.467,0.961,0.000,0.000,0.000,0.000,6,0.280,-0.692,4095,4095,3821,4095,5.035,8.057
368,0.000,-3.065,-1.220,0.005,5.218,8.115,1.266,7.833,-1.176,0.000,5.312,8.489,0.992,0.000,0.000,0.000,0.000,6,0.280,-0.692,4095,4095,3820,4095,5.127,8.148
369,0.000,-3.065,-1.220,-0.005,5.137,8.144,1.389,7.833,-1.176,-0.016,5.326,8.491,0.931,0.000,0.000,0.000,0.000,6,0.280,-0.692,4095,4095,3817,4095,4.944,8.057
370,0.000,-3.065,-1.220,-0.005,5.046,8.125,1.328,7.833,-1.176,-0.005,5.376,8.496,0.717,0.000,0.000,0.000,0.000,6,0.281,-0.692,4095,4095,3815,4095,5.035,8.057
371,0.000,-3.065,-1.220,0.005,5.180,8.118,1.053,7.833,-1.176,-0.005,5.482,8.491,0.778,0.000,0.000,0.000,0.000,6,0.281,-0.691,4095,4095,3816,4095,5.219,8.057
372,0.000,-3.087,-1.220,-0.016,5.180,8.130,0.931,7.833,-1.176,0.000,5.443,8.496,0.778,0.000,0.000,0.000,0.000,6,0.281,-0.692,4095,4095,3818,4095,5.127,8.057
373,0.000,-3.087,-1.220,-0.005,5.142,8.163,0.900,7.855,-1.176,0.005,5.410,8.498,0.809,0.000,0.000,0.000,0.000,6,0.280,-0.692,4095,4095,3822,4095,5.035,8.057
374,0.000,-3.087,-1.220,0.000,5.201,8.187,0.992,7.855,-1.176,0.005,5.338,8.477,0.748,0.000,0.000,0.000,0.000,6,0.280,-0.692,4095,4095,3821,4095,5.127,8.057
375,0.000,-3.087,-1.220,-0.005,5.163,8.163,0.687,7.833,-1.176,0.005,5.326,8.491,0.595,0.000,0.000,0.000,0.000,6,0.280,-0.692,4095,4095,3822,4095,5.127,8.057
376,0.000,-3.087,-1.220,-0.005,5.058,8.125,0.504,7.833,-1.176,-0.005,5.369,8.510,0.565,0.000,0.000,0.000,0.000,6,0.280,-0.692,4095,4095,3819,4095,5.127,8.148
377,0.000,-3.109,-1.220,-0.005,5.161,8.137,0.565,7.833,-1.176,-0.005,5.388,8.510,0.626,0.000,0.000,0.000,0.000,6,0.280,-0.691,4095,4095,3817,4095,5.127,8.148
378,0.000,-3.109,-1.220,0.000,5.216,8.132,0.595,7.833,-1.176,0.016,5.422,8.508,0.687,0.000,0.000,0.000,0.000,6,0.280,-0.692,4095,4095,3818,4095,5.127,8.148
379,0.000,-3.109,-1.220,-0.005,5.190,8.125,0.656,7.855,-1.176,-0.005,5.450,8.518,0.687,0.000,0.000,0.000,0.000,6,0.280,-0.691,4095,4095,3818,4095,5.035,8.057
380,0.000,-3.109,-1.220,0.000,5.146,8.156,0.626,7.855,-1.176,0.000,5.474,8.472,0.656,0.000,0.000,0.000,0.000,6,0.280,-0.692,4095,4095,3822,4095,5.127,8.057
381,0.000,-3.109,-1.220,0.005,5.182,8.156,0.626,7.877,-1.176,0.000,5.443,8.448,0.565,0.000,0.000,0.000,0.000,6,0.280,-0.690,4095,4095,3823,4095,5.127,8.057
382,0.000,-3.109,-1.220,-0.005,5.199,8.211,0.626,7.877,-1.176,0.000,5.419,8.479,0.473,0.000,0.000,0.000,0.000,6,0.280,-0.692,4095,4095,3823,4095,5.127,8.057
383,0.000,-3.109,-1.220,0.000,5.127,8.197,0.504,7.877,-1.176,-0.005,5.436,8.474,0.504,0.000,0.000,0.000,0.000,6,0.280,-0.691,4095,4095,3823,4095,5.127,8.148
384,0.000,-3.131,-1.220,0.000,5.173,8.170,0.290,7.877,-1.176,0.005,5.446,8.462,0.595,0.000,0.000,0.000,0.000,6,0.280,-0.691,4095,4095,3820,4095,5.127,8.148
385,0.000,-3.131,-1.220,0.000,5.285,8.206,0.381,7.899,-1.176,0.000,5.439,8.474,0.534,0.000,0.000,0.000,0.000,6,0.280,-0.691,4095,4095,3819,4095,5.127,8.148
386,0.000,-3.131,-1.220,0.005,5.149,8.180,0.351,7.899,-1.176,0.000,5.501,8.474,0.443,0.000,0.000,0.000,0.000,6,0.280,-0.691,4095,4095,3819,4095,5.127,8.148
387,0.000,-3.131,-1.220,0.000,5.166,8.180,0.290,7.921,-1.176,-0.005,5.424,8.477,0.381,0.000,0.000,0.000,0.000,6,0.280,-0.691,4095,4095,3820,4095,5.127,8.148
388,0.000,-3.131,-1.220,0.005,5.242,8.156,0.198,7.921,-1.176,0.005,5.465,8.455,0.168,0.000,0.000,0.000,0.000,6,0.280,-0.691,4095,4095,3823,4095,5.219,8.148
389,0.000,-3.131,-1.220,-0.005,5.209,8.182,0.137,7.943,-1.176,0.000,5.479,8.462,0.137,0.000,0.000,0.000,0.000,6,0.280,-0.691,4095,4095,3819,4095,5.127,8.148
390,0.000,-3.131,-1.220,-0.016,5.197,8.185,0.000,7.943,-1.176,0.000,5.460,8.431,0.290,0.000,0.000,0.000,0.000,6,0.280,-0.691,4095,4095,3822,4095,5.127,8.148
391,0.000,-3.131,-1.220,0.000,5.158,8.166,-0.015,7.965,-1.176,0.005,5.455,8.412,0.320,0.000,0.000,0.000,0.000,6,0.280,-0.691,4095,4095,3825,4095,5.219,8.148
392,0.000,-3.131,-1.220,0.005,5.180,8.204,0.000,7.965,-1.176,0.000,5.525,8.443,0.412,0.000,0.000,0.000,0.000,6,0.280,-0.692,4095,4095,3824,4095,5.127,8.148
393,0.000,-3.131,-1.220,0.005,5.240,8.233,0.015,7.987,-1.176,0.000,5.553,8.453,0.504,0.000,0.000,0.000,0.000,6,0.280,-0.691,4095,4095,3823,4095,5.127,8.148
394,0.000,-3.131,-1.220,0.000,5.242,8.235,-0.015,8.009,-1.176,-0.005,5.549,8.455,0.351,0.000,0.000,0.000,0.000,6,0.280,-0.691,4095,4095,3820,4095,5.127,8.148
395,0.000,-3.131,-1.220,0.000,5.271,8.228,-0.107,8.009,-1.176,0.005,5.546,8.434,0.198,0.000,0.000,0.000,0.000,6,0.280,-0.691,4095,4095,3819,4095,5.127,8.148
396,0.000,-3.131,-1.220,0.016,5.319,8.266,0.000,8.031,-1.176,0.005,5.486,8.422,0.076,0.000,0.000,0.000,0.000,6,0.280,-0.691,4095,4095,3818,4095,5.219,8.148
397,0.000,-3.131,-1.220,0.000,5.252,8.249,-0.137,8.053,-1.176,0.005,5.522,8.395,0.076,0.000,0.000,0.000,0.000,6,0.280,-0.691,4095,4095,3820,4095,5.219,8.148
398,0.000,-3.131,-1.220,-0.005,5.257,8.257,-0.259,8.053,-1.176,-0.005,5.565,8.367,0.198,0.000,0.000,0.000,0.000,6,0.280,-0.691,4095,4095,3823,4095,5.219,8.148
399,0.000,-3.131,-1.220,-0.005,5.352,8.273,-0.198,8.075,-1.176,0.005,5.544,8.343,0.320,0.000,0.000,0.000,0.000,6,0.280,-0.691,4095,4095,3825,4095,5.310,8.240
400,0.000,-3.109,-1.220,0.000,5.292,8.276,-0.076,8.097,-1.176,0.000,5.534,8.316,0.198,0.000,0.000,0.000,0.000,6,0.280,-0.691,4095,4095,3825,4095,5.219,8.240
401,0.000,-3.109,-1.220,0.000,5.242,8.300,-0.015,8.119,-1.176,0.000,5.527,8.374,0.290,0.000,0.000,0.000,0.000,6,0.280,-0.691,4095,4095,3825,4095,5.219,8.240
402,0.000,-3.131,-1.220,0.000,5.292,8.280,-0.168,8.141,-1.176,0.005,5.553,8.415,0.320,0.000,0.000,0.000,0.000,6,0.280,-0.691,4095,4095,3823,4095,5.310,8.240
403,0.000,-3.109,-1.220,0.000,5.333,8.300,-0.381,8.163,-1.176,0.016,5.551,8.364,0.259,0.000,0.000,0.000,0.000,6,0.281,-0.691,4095,4095,3821,4095,5.219,8.240
404,0.000,-3.109,-1.220,-0.005,5.297,8.288,-0.320,8.185,-1.176,0.005,5.539,8.316,0.259,0.000,0.000,0.000,0.000,6,0.280,-0.691,4095,4095,3822,4095,5.219,8.240
405,0.000,-3.109,-1.220,0.000,5.235,8.269,-0.259,8.185,-1.176,-0.016,5.510,8.352,0.320,0.000,0.000,0.000,0.000,6,0.280,-0.691,4095,4095,3822,4095,5.219,8.240
406,0.000,-3.109,-1.220,0.016,5.254,8.326,-0.320,8.207,-1.176,-0.005,5.522,8.345,0.290,0.000,0.000,0.000,0.000,6,0.280,-0.691,4095,4095,3827,4095,5.310,8.240
407,0.000,-3.131,-1.220,0.016,5.314,8.359,-0.381,8.229,-1.176,-0.005,5.546,8.321,0.168,0.000,0.000,0.000,0.000,6,0.280,-0.691,4095,4095,3827,4095,5.219,8.240
408,0.000,-3.109,-1.220,0.005,5.297,8.297,-0.595,8.251,-1.176,-0.016,5.498,8.348,0.107,0.000,0.000,0.000,0.000,6,0.280,-0.691,4095,4095,3827,4095,5.219,8.240
409,0.000,-3.109,-1.220,0.005,5.271,8.257,-0.626,8.251,-1.176,0.000,5.482,8.302,0.259,0.000,0.000,0.000,0.000,6,0.281,-0.691,4095,4095,3826,4095,5.219,8.240
410,0.000,-3.109,-1.220,0.016,5.252,8.292,-0.595,8.273,-1.176,-0.005,5.455,8.278,0.259,0.000,0.000,0.000,0.000,6,0.282,-0.691,4095,4095,3823,4095,5.310,8.331
411,0.000,-3.131,-1.220,0.005,5.307,8.362,-0.534,8.295,-1.176,0.000,5.465,8.290,0.198,0.000,0.000,0.000,0.000,6,0.281,-0.691,4095,4095,3823,4095,5.219,8.240
412,0.000,-3.131,-1.220,0.000,5.326,8.376,-0.351,8.295,-1.176,0.000,5.498,8.278,0.198,0.000,0.000,0.000,0.000,6,0.280,-0.691,4095,4095,3822,4095,5.219,8.240
413,0.000,-3.131,-1.220,0.000,5.271,8.324,-0.412,8.317,-1.176,0.000,5.491,8.269,0.198,0.000,0.000,0.000,0.000,6,0.281,-0.691,4095,4095,3825,4095,5.219,8.240
414,0.000,-3.131,-1.220,0.000,5.321,8.309,-0.595,8.339,-1.176,0.005,5.417,8.264,0.168,0.000,0.000,0.000,0.000,6,0.281,-0.691,4095,4095,3829,4095,5.219,8.331
415,0.000,-3.109,-1.220,0.005,5.369,8.326,-0.565,8.339,-1.176,0.000,5.381,8.269,0.168,0.000,0.000,0.000,0.000,6,0.280,-0.691,4095,4095,3829,4095,5.310,8.331
416,0.000,-3.109,-1.220,0.000,5.307,8.357,-0.534,8.339,-1.176,0.000,5.453,8.280,0.076,0.000,0.000,0.000,0.000,6,0.280,-0.691,4095,4095,3829,4095,5.219,8.240
417,0.000,-3.109,-1.220,-0.016,5.278,8.352,-0.534,8.361,-1.176,0.005,5.486,8.261,0.107,0.000,0.000,0.000,0.000,6,0.280,-0.691,4095,4095,3828,4095,5.310,8.240
418,0.000,-3.109,-1.220,0.016,5.386,8.348,-0.626,8.383,-1.176,0.000,5.529,8.257,0.107,0.000,0.000,0.000,0.000,6,0.280,-0.691,4095,4095,3825,4095,5.310,8.240
419,0.000,-3.109,-1.220,-0.005,5.362,8.340,-0.656,8.383,-1.176,0.000,5.462,8.264,-0.076,0.000,0.000,0.000,0.000,6,0.280,-0.691,4095,4095,3827,4095,5.219,8.331
420,0.000,-3.109,-1.220,0.000,5.436,8.345,-0.443,8.405,-1.176,-0.005,5.458,8.240,-0.015,0.000,0.000,0.000,0.000,6,0.281,-0.690,4095,4095,3827,4095,5.219,8.331
421,0.000,-3.087,-1.220,-0.005,5.379,8.367,-0.320,8.427,-1.176,-0.005,5.498,8.218,0.229,0.000,0.000,0.000,0.000,6,0.281,-0.691,4095,4095,3829,4095,5.310,8.331
422,0.000,-3.087,-1.220,-0.005,5.340,8.359,-0.412,8.427,-1.176,0.005,5.431,8.216,0.168,0.000,0.000,0.000,0.000,6,0.281,-0.691,4095,4095,3831,4095,5.310,8.331
423,0.000,-3.087,-1.220,0.000,5.439,8.369,-0.565,8.449,-1.176,0.000,5.491,8.218,0.168,0.000,0.000,0.000,0.000,6,0.280,-0.691,4095,4095,3831,4095,5.402,8.331
424,0.000,-3.087,-1.220,0.005,5.419,8.405,-0.473,8.471,-1.176,0.000,5.479,8.230,0.046,0.000,0.000,0.000,0.000,6,0.280,-0.691,4095,4095,3833,4095,5.310,8.331
425,0.000,-3.087,-1.220,0.000,5.328,8.393,-0.473,8.471,-1.176,0.000,5.415,8.249,0.000,0.000,0.000,0.000,0.000,6,0.280,-0.691,4095,4095,3829,4095,5.310,8.331
426,0.000,-3.065,-1.220,0.000,5.345,8.364,-0.473,8.493,-1.176,0.000,5.455,8.230,0.000,0.000,0.000,0.000,0.000,6,0.280,-0.691,4095,4095,3827,4095,5.402,8.331
427,0.000,-3.065,-1.220,-0.005,5.343,8.338,-0.443,8.493,-1.176,-0.005,5.436,8.235,0.015,0.000,0.000,0.000,0.000,6,0.281,-0.691,4095,4095,3829,4095,5.402,8.331
428,0.000,-3.065,-1.220,0.000,5.312,8.319,-0.504,8.493,-1.176,-0.016,5.395,8.312,-0.015,0.000,0.000,0.000,0.000,6,0.280,-0.691,4095,4095,3827,4095,5.310,8.331
429,0.000,-3.065,-1.220,0.000,5.362,8.340,-0.504,8.515,-1.176,0.000,5.410,8.316,-0.076,0.000,0.000,0.000,0.000,6,0.280,-0.691,4095,4095,3829,4095,5.310,8.331
430,0.000,-3.065,-1.220,-0.005,5.388,8.357,-0.504,8.515,-1.176,0.000,5.462,8.266,-0.198,0.000,0.000,0.000,0.000,6,0.280,-0.690,4095,4095,3831,4095,5.310,8.331
431,0.000,-3.065,-1.220,0.000,5.345,8.326,-0.595,8.515,-1.176,-0.005,5.458,8.266,-0.259,0.000,0.000,0.000,0.000,6,0.280,-0.691,4095,4095,3832,4095,5.310,8.240
432,0.000,-3.065,-1.220,0.000,5.357,8.309,-0.595,8.537,-1.176,-0.005,5.501,8.264,-0.137,0.000,0.000,0.000,0.000,6,0.281,-0.691,4095,4095,3834,4095,5.310,8.331
433,0.000,-3.043,-1.220,-0.016,5.331,8.324,-0.504,8.537,-1.176,0.016,5.419,8.261,-0.107,0.000,0.000,0.000,0.000,6,0.280,-0.691,4095,4095,3834,4095,5.310,8.331
434,0.000,-3.043,-1.220,-0.005,5.314,8.319,-0.656,8.537,-1.176,0.000,5.376,8.280,-0.137,0.000,0.000,0.000,0.000,6,0.280,-0.691,4095,4095,3834,4095,5.310,8.240
435,0.000,-3.043,-1.220,0.016,5.312,8.271,-0.687,8.558,-1.176,-0.005,5.460,8.290,-0.137,0.000,0.000,0.000,0.000,6,0.280,-0.691,4095,4095,3831,4095,5.310,8.240
436,0.000,-3.043,-1.220,0.005,5.328,8.266,-0.717,8.558,-1.176,0.005,5.427,8.276,-0.198,0.000,0.000,0.000,0.000,6,0.280,-0.691,4095,4095,3829,4095,5.310,8.240
437,0.000,-3.043,-1.220,0.000,5.362,8.304,-0.748,8.558,-1.176,-0.005,5.398,8.297,-0.290,0.000,0.000,0.000,0.000,6,0.281,-0.691,4095,4095,3829,4095,5.310,8.240
438,0.000,-3.043,-1.220,0.000,5.400,8.348,-0.595,8.558,-1.176,-0.005,5.441,8.331,-0.259,0.000,0.000,0.000,0.000,6,0.280,-0.691,4095,4095,3831,4095,5.310,8.240
439,0.000,-3.021,-1.220,0.000,5.388,8.359,-0.626,8.558,-1.176,-0.005,5.439,8.304,-0.198,0.000,0.000,0.000,0.000,6,0.280,-0.691,4095,4095,3835,4095,5.310,8.240
440,0.000,-3.021,-1.220,0.000,5.348,8.338,-0.626,8.580,-1.176,0.000,5.427,8.271,-0.198,0.000,0.000,0.000,0.000,6,0.280,-0.691,4095,4095,3838,4095,5.310,8.240
441,0.000,-3.021,-1.220,-0.016,5.383,8.304,-0.504,8.580,-1.176,-0.005,5.422,8.254,-0.290,0.000,0.000,0.000,0.000,6,0.280,-0.691,4095,4095,3837,4095,5.310,8.331
442,0.000,-2.999,-1.220,0.000,5.367,8.290,-0.565,8.580,-1.176,0.005,5.439,8.249,-0.443,0.000,0.000,0.000,0.000,6,0.281,-0.690,4095,4095,3835,4095,5.310,8.331
443,0.000,-2.999,-1.220,0.027,5.283,8.314,-0.504,8.602,-1.176,0.000,5.479,8.261,-0.320,0.000,0.000,0.000,0.000,6,0.280,-0.691,4095,4095,3833,4095,5.310,8.331
444,0.000,-2.999,-1.220,0.005,5.314,8.324,-0.626,8.602,-1.176,0.005,5.489,8.269,-0.259,0.000,0.000,0.000,0.000,6,0.280,-0.691,4095,4095,3832,4095,5.310,8.240
445,0.000,-2.999,-1.220,-0.016,5.403,8.297,-0.595,8.624,-1.176,0.000,5.462,8.285,-0.290,0.000,0.000,0.000,0.000,6,0.280,-0.691,4095,4095,3833,4095,5.310,8.240
446,0.000,-2.999,-1.220,0.000,5.415,8.326,-0.565,8.624,-1.176,0.000,5.395,8.292,-0.320,0.000,0.000,0.000,0.000,6,0.281,-0.691,4095,4095,3835,4095,5.219,8.240
447,0.000,-2.977,-1.220,0.000,5.439,8.333,-0.626,8.624,-1.176,-0.005,5.405,8.261,-0.412,0.000,0.000,0.000,0.000,6,0.281,-0.691,4095,4095,3838,4095,5.310,8.240
448,0.000,-2.977,-1.198,0.005,5.453,8.290,-0.504,8.624,-1.176,0.000,5.467,8.266,-0.412,0.000,0.000,0.000,0.000,6,0.281,-0.691,4095,4095,3840,4095,5.402,8.240
449,0.000,-2.955,-1.198,0.000,5.441,8.304,-0.351,8.624,-1.176,-0.005,5.415,8.300,-0.443,0.000,0.000,0.000,0.000,6,0.282,-0.691,4095,4095,3839,4095,5.402,8.240
450,0.000,-2.955,-1.198,0.005,5.326,8.283,-0.443,8.624,-1.176,0.000,5.386,8.292,-0.595,0.000,0.000,0.000,0.000,6,0.282,-0.691,4095,4095,3837,4095,5.402,8.331
451,0.000,-2.955,-1.198,0.005,5.242,8.240,-0.534,8.646,-1.176,0.000,5.446,8.259,-0.656,0.000,0.000,0.000,0.000,6,0.281,-0.691,4095,4095,3834,4095,5.402,8.240
452,0.000,-2.955,-1.198,-0.005,5.309,8.249,-0.565,8.646,-1.176,0.000,5.455,8.245,-0.626,0.000,0.000,0.000,0.000,6,0.281,-0.691,4095,4095,3834,4095,5.402,8.240
453,0.000,-2.955,-1.198,-0.005,5.314,8.273,-0.687,8.646,-1.176,-0.005,5.448,8.273,-0.381,0.000,0.000,0.000,0.000,6,0.281,-0.691,4095,4095,3835,4095,5.310,8.240
454,0.000,-2.955,-1.198,-0.005,5.331,8.302,-0.626,8.668,-1.176,0.005,5.407,8.280,-0.320,0.000,0.000,0.000,0.000,6,0.281,-0.691,4095,4095,3837,4095,5.219,8.240
455,0.000,-2.955,-1.198,0.005,5.395,8.302,-0.504,8.668,-1.176,0.005,5.374,8.245,-0.504,0.000,0.000,0.000,0.000,6,0.281,-0.690,4095,4095,3842,4095,5.310,8.240
456,0.000,-2.933,-1.198,0.005,5.441,8.300,-0.443,8.668,-1.176,-0.005,5.415,8.257,-0.565,0.000,0.000,0.000,0.000,6,0.281,-0.690,4095,4095,3843,4095,5.310,8.240
457,0.000,-2.933,-1.198,0.000,5.371,8.343,-0.565,8.668,-1.176,-0.005,5.431,8.271,-0.534,0.000,0.000,0.000,0.000,6,0.280,-0.691,4095,4095,3843,4095,5.310,8.240
458,0.000,-2.933,-1.198,0.005,5.345,8.331,-0.534,8.668,-1.176,0.000,5.400,8.247,-0.504,0.000,0.000,0.000,0.000,6,0.280,-0.691,4095,4095,3842,4095,5.310,8.240
459,0.000,-2.911,-1.198,0.000,5.443,8.312,-0.504,8.668,-1.176,0.005,5.422,8.233,-0.381,0.000,0.000,0.000,0.000,6,0.281,-0.690,4095,4095,3837,4095,5.402,8.240
460,0.000,-2.911,-1.198,0.000,5.381,8.307,-0.381,8.690,-1.176,-0.005,5.482,8.235,-0.443,0.000,0.000,0.000,0.000,6,0.281,-0.690,4095,4095,3841,4095,5.310,8.331
461,0.000,-2.911,-1.198,0.000,5.314,8.307,-0.534,8.690,-1.176,0.005,5.527,8.245,-0.473,0.000,0.000,0.000,0.000,6,0.281,-0.690,4095,4095,3842,4095,5.310,8.331
462,0.000,-2.911,-1.198,0.005,5.376,8.254,-0.595,8.712,-1.176,0.000,5.510,8.266,-0.443,0.000,0.000,0.000,0.000,6,0.280,-0.690,4095,4095,3843,4095,5.402,8.240
463,0.000,-2.889,-1.198,0.000,5.510,8.304,-0.412,8.712,-1.176,0.000,5.460,8.276,-0.473,0.000,0.000,0.000,0.000,6,0.280,-0.690,4095,4095,3846,4095,5.310,8.240
464,0.000,-2.889,-1.198,-0.005,5.400,8.319,-0.443,8.734,-1.176,0.000,5.467,8.252,-0.534,0.000,0.000,0.000,0.000,6,0.280,-0.690,4095,4095,3846,4095,5.310,8.240
465,0.000,-2.889,-1.198,0.000,5.321,8.295,-0.687,8.734,-1.176,-0.005,5.460,8.249,-0.473,0.000,0.000,0.000,0.000,6,0.281,-0.690,4095,4095,3847,4095,5.310,8.240
466,0.000,-2.867,-1.198,0.000,5.460,8.355,-0.534,8.734,-1.176,0.000,5.474,8.247,-0.595,0.000,0.000,0.000,0.000,6,0.281,-0.690,4095,4095,3845,4095,5.493,8.240
467,0.000,-2.867,-1.198,0.000,5.393,8.324,-0.412,8.756,-1.176,-0.016,5.455,8.247,-0.534,0.000,0.000,0.000,0.000,6,0.280,-0.690,4095,4095,3847,4095,5.310,8.240
468,0.000,-2.867,-1.198,0.000,5.395,8.309,-0.412,8.756,-1.176,0.005,5.441,8.273,-0.473,0.000,0.000,0.000,0.000,6,0.280,-0.691,4095,4095,3847,4095,5.310,8.240
469,0.000,-2.867,-1.198,0.000,5.436,8.302,-0.534,8.756,-1.176,0.000,5.465,8.269,-0.626,0.000,0.000,0.000,0.000,6,0.280,-0.690,4095,4095,3847,4095,5.402,8.331
470,0.000,-2.846,-1.198,0.016,5.450,8.340,-0.473,8.756,-1.176,0.000,5.424,8.225,-0.626,0.000,0.000,0.000,0.000,6,0.281,-0.690,4095,4095,3849,4095,5.310,8.240
471,0.000,-2.846,-1.198,0.016,5.450,8.359,-0.351,8.778,-1.176,-0.016,5.424,8.240,-0.473,0.000,0.000,0.000,0.000,6,0.281,-0.690,4095,4095,3849,4095,5.310,8.240
472,0.000,-2.824,-1.198,0.000,5.450,8.331,-0.381,8.778,-1.176,0.005,5.462,8.283,-0.412,0.000,0.000,0.000,0.000,6,0.281,-0.690,4095,4095,3853,4095,5.402,8.240
473,0.000,-2.824,-1.198,0.000,5.506,8.364,-0.412,8.778,-1.176,0.000,5.427,8.288,-0.381,0.000,0.000,0.000,0.000,6,0.281,-0.690,4095,4095,3857,4095,5.402,8.331
474,0.000,-2.802,-1.198,0.000,5.424,8.312,-0.473,8.778,-1.176,0.000,5.458,8.273,-0.351,0.000,0.000,0.000,0.000,6,0.281,-0.690,4095,4095,3857,4095,5.402,8.331
475,0.000,-2.802,-1.198,0.000,5.393,8.278,-0.473,8.778,-1.176,0.000,5.513,8.249,-0.320,0.000,0.000,0.000,0.000,6,0.281,-0.690,4095,4095,3859,4095,5.402,8.331
476,0.000,-2.802,-1.198,-0.005,5.439,8.352,-0.259,8.800,-1.176,-0.005,5.477,8.197,-0.473,0.000,0.000,0.000,0.000,6,0.281,-0.690,4095,4095,3855,4095,5.493,8.331
477,0.000,-2.802,-1.198,0.000,5.443,8.410,-0.229,8.800,-1.176,-0.005,5.462,8.218,-0.381,0.000,0.000,0.000,0.000,6,0.281,-0.690,4095,4095,3857,4095,5.402,8.240
478,0.000,-2.780,-1.198,-0.005,5.439,8.379,-0.137,8.822,-1.176,0.000,5.434,8.218,-0.351,0.000,0.000,0.000,0.000,6,0.280,-0.690,4095,4095,3859,4095,5.310,8.240
479,0.000,-2.780,-1.198,0.000,5.462,8.374,-0.198,8.822,-1.176,0.000,5.455,8.252,-0.351,0.000,0.000,0.000,0.000,6,0.281,-0.690,4095,4095,3862,4095,5.402,8.331
480,0.000,-2.780,-1.198,0.000,5.460,8.403,-0.412,8.822,-1.176,0.000,5.506,8.288,-0.259,0.000,0.000,0.000,0.000,6,0.281,-0.690,4095,4095,3865,4095,5.402,8.331
481,0.000,-2.780,-1.198,0.000,5.412,8.383,-0.412,8.844,-1.176,0.005,5.561,8.266,-0.351,0.000,0.000,0.000,0.000,6,0.281,-0.690,4095,4095,3867,4095,5.402,8.331
482,0.000,-2.780,-1.198,0.000,5.336,8.362,-0.259,8.844,-1.176,0.005,5.510,8.240,-0.473,0.000,0.000,0.000,0.000,6,0.281,-0.690,4095,4095,3869,4095,5.402,8.331
483,0.000,-2.780,-1.198,0.000,5.383,8.393,-0.290,8.844,-1.176,-0.005,5.458,8.237,-0.290,0.000,0.000,0.000,0.000,6,0.281,-0.690,4095,4095,3868,4095,5.402,8.331
484,0.000,-2.780,-1.198,0.005,5.455,8.410,-0.351,8.866,-1.176,0.000,5.446,8.266,-0.137,0.000,0.000,0.000,0.000,6,0.281,-0.690,4095,4095,3866,4095,5.402,8.331
485,0.000,-2.780,-1.198,0.000,5.431,8.398,-0.229,8.866,-1.176,0.005,5.467,8.278,-0.137,0.000,0.000,0.000,0.000,6,0.281,-0.690,4095,4095,3866,4095,5.310,8.331
486,0.000,-2.780,-1.198,0.005,5.436,8.391,-0.198,8.866,-1.176,0.000,5.446,8.276,-0.107,0.000,0.000,0.000,0.000,6,0.281,-0.690,4095,4095,3867,4095,5.310,8.331
487,0.000,-2.780,-1.198,0.005,5.443,8.367,-0.290,8.866,-1.176,-0.016,5.448,8.302,-0.107,0.000,0.000,0.000,0.000,6,0.282,-0.690,4095,4095,3869,4095,5.402,8.331
488,0.000,-2.758,-1.198,-0.005,5.448,8.369,-0.229,8.866,-1.176,0.000,5.506,8.333,-0.107,0.000,0.000,0.000,0.000,6,0.282,-0.690,4095,4095,3871,4095,5.402,8.331
489,0.000,-2.758,-1.198,0.000,5.434,8.376,-0.198,8.866,-1.176,0.000,5.441,8.328,-0.229,0.000,0.000,0.000,0.000,6,0.282,-0.690,4095,4095,3873,4095,5.402,8.331
490,0.000,-2.758,-1.198,0.000,5.371,8.395,-0.229,8.866,-1.176,0.000,5.431,8.340,-0.168,0.000,0.000,0.000,0.000,6,0.281,-0.690,4095,4095,3874,4095,5.402,8.331
491,0.000,-2.758,-1.198,0.000,5.407,8.415,-0.168,8.866,-1.176,0.000,5.470,8.331,-0.046,0.000,0.000,0.000,0.000,6,0.281,-0.690,4095,4095,3874,4095,5.402,8.331
492,0.000,-2.758,-1.198,0.000,5.460,8.431,-0.107,8.866,-1.176,0.000,5.496,8.324,-0.198,0.000,0.000,0.000,0.000,6,0.282,-0.690,4095,4095,3871,4095,5.402,8.331
493,0.000,-2.758,-1.198,0.005,5.393,8.407,-0.046,8.866,-1.176,0.000,5.484,8.348,-0.198,0.000,0.000,0.000,0.000,6,0.281,-0.690,4095,4095,3873,4095,5.310,8.331
494,0.000,-2.758,-1.198,0.005,5.498,8.429,-0.015,8.866,-1.176,-0.005,5.465,8.316,-0.168,0.000,0.000,0.000,0.000,6,0.281,-0.690,4095,4095,3875,4095,5.402,8.331
495,0.000,-2.758,-1.198,0.016,5.405,8.412,-0.137,8.866,-1.176,-0.005,5.494,8.283,-0.107,0.000,0.000,0.000,0.000,6,0.281,-0.690,4095,4095,3875,4095,5.402,8.423
496,0.000,-2.758,-1.198,0.000,5.417,8.395,-0.137,8.866,-1.176,-0.005,5.503,8.314,-0.046,0.000,0.000,0.000,0.000,6,0.280,-0.690,4095,4095,3879,4095,5.310,8.331
497,0.000,-2.758,-1.198,0.005,5.508,8.379,-0.168,8.888,-1.176,-0.005,5.486,8.343,-0.046,0.000,0.000,0.000,0.000,6,0.281,-0.690,4095,4095,3880,4095,5.493,8.423
498,0.000,-2.758,-1.198,0.000,5.381,8.407,-0.076,8.888,-1.176,0.005,5.448,8.352,0.000,0.000,0.000,0.000,0.000,6,0.282,-0.689,4095,4095,3879,4095,5.402,8.331
499,0.000,-2.758,-1.198,0.016,5.367,8.443,-0.015,8.866,-1.176,0.005,5.450,8.350,0.015,0.000,0.000,0.000,0.000,6,0.282,-0.690,4095,4095,3879,4095,5.402,8.331
500,0.000,-2.758,-1.198,0.000,5.424,8.412,0.076,8.866,-1.176,0.000,5.450,8.350,-0.168,0.000,0.000,0.000,0.000,6,0.281,-0.689,4095,4095,3876,4095,5.493,8.331
501,0.000,-2.758,-1.198,0.000,5.374,8.371,0.137,8.866,-1.176,0.005,5.422,8.364,-0.351,0.000,0.000,0.000,0.000,6,0.281,-0.690,4095,4095,3878,4095,5.310,8.331
502,0.000,-2.758,-1.198,0.005,5.393,8.446,0.000,8.866,-1.176,0.000,5.460,8.357,-0.168,0.000,0.000,0.000,0.000,6,0.280,-0.690,4095,4095,3881,4095,5.310,8.423
503,0.000,-2.780,-1.198,0.005,5.405,8.472,-0.046,8.866,-1.176,0.000,5.518,8.316,0.000,0.000,0.000,0.000,0.000,6,0.281,-0.690,4095,4095,3882,4095,5.402,8.331
504,0.000,-2.780,-1.198,-0.005,5.350,8.403,-0.076,8.866,-1.176,0.000,5.501,8.343,0.000,0.000,0.000,0.000,0.000,6,0.281,-0.689,4095,4095,3887,4095,5.310,8.331
505,0.000,-2.780,-1.198,-0.005,5.386,8.429,0.076,8.866,-1.176,0.000,5.522,8.379,-0.076,0.000,0.000,0.000,0.000,6,0.281,-0.690,4095,4095,3887,4095,5.310,8.423
506,0.000,-2.780,-1.198,0.000,5.360,8.398,0.198,8.866,-1.176,-0.005,5.453,8.371,-0.107,0.000,0.000,0.000,0.000,6,0.281,-0.690,4095,4095,3887,4095,5.402,8.423
507,0.000,-2.802,-1.198,-0.016,5.348,8.359,0.107,8.866,-1.176,0.005,5.443,8.369,-0.046,0.000,0.000,0.000,0.000,6,0.280,-0.689,4095,4095,3889,4095,5.310,8.331
508,0.000,-2.802,-1.198,-0.005,5.376,8.398,0.000,8.866,-1.176,0.000,5.474,8.381,-0.137,0.000,0.000,0.000,0.000,6,0.281,-0.689,4095,4095,3892,4095,5.310,8.423
509,0.000,-2.802,-1.198,0.000,5.314,8.364,0.046,8.866,-1.176,-0.005,5.417,8.398,-0.076,0.000,0.000,0.000,0.000,6,0.281,-0.689,4095,4095,3891,4095,5.310,8.331
510,0.000,-2.802,-1.198,0.005,5.350,8.348,0.290,8.866,-1.176,-0.005,5.496,8.403,-0.046,0.000,0.000,0.000,0.000,6,0.281,-0.689,4095,4095,3891,4095,5.310,8.331
511,0.000,-2.802,-1.198,0.000,5.328,8.371,0.412,8.866,-1.176,0.000,5.561,8.424,-0.198,0.000,0.000,0.000,0.000,6,0.281,-0.689,4095,4095,3895,4095,5.310,8.331
512,0.000,-2.824,-1.198,0.027,5.290,8.405,0.412,8.866,-1.176,-0.005,5.503,8.429,-0.198,0.000,0.000,0.000,0.000,6,0.281,-0.689,4095,4095,3897,4095,5.310,8.331
513,0.000,-2.824,-1.198,-0.016,5.321,8.362,0.168,8.844,-1.176,0.000,5.465,8.424,-0.046,0.000,0.000,0.000,0.000,6,0.280,-0.689,4095,4095,3899,4095,5.310,8.331
514,0.000,-2.824,-1.198,-0.005,5.367,8.369,0.137,8.844,-1.176,0.000,5.522,8.434,0.000,0.000,0.000,0.000,0.000,6,0.281,-0.689,4095,4095,3903,4095,5.310,8.331
515,0.000,-2.824,-1.198,0.000,5.319,8.371,0.168,8.844,-1.176,0.000,5.494,8.448,0.107,0.000,0.000,0.000,0.000,6,0.281,-0.689,4095,4095,3906,4095,5.219,8.331
516,0.000,-2.846,-1.198,0.005,5.276,8.324,0.290,8.844,-1.176,-0.005,5.460,8.450,0.000,0.000,0.000,0.000,0.000,6,0.281,-0.689,4095,4095,3907,4095,5.310,8.331
517,0.000,-2.846,-1.198,0.000,5.300,8.338,0.320,8.844,-1.176,0.000,5.458,8.438,0.107,0.000,0.000,0.000,0.000,6,0.281,-0.689,4095,4095,3907,4095,5.310,8.331
518,0.000,-2.867,-1.198,-0.005,5.245,8.367,0.198,8.822,-1.176,0.000,5.467,8.460,0.107,0.000,0.000,0.000,0.000,6,0.281,-0.689,4095,4095,3907,4095,5.310,8.331
519,0.000,-2.867,-1.198,0.005,5.216,8.395,0.229,8.822,-1.176,-0.005,5.496,8.472,0.137,0.000,0.000,0.000,0.000,6,0.281,-0.689,4095,4095,3908,4095,5.219,8.240
520,0.000,-2.889,-1.198,0.000,5.201,8.362,0.290,8.822,-1.176,-0.005,5.494,8.462,0.137,0.000,0.000,0.000,0.000,6,0.281,-0.689,4095,4095,3909,4095,5.219,8.331
521,0.000,-2.889,-1.198,0.005,5.269,8.348,0.290,8.822,-1.176,0.000,5.501,8.472,0.168,0.000,0.000,0.000,0.000,6,0.281,-0.689,4095,4095,3913,4095,5.219,8.331
522,0.000,-2.911,-1.198,0.000,5.383,8.343,0.168,8.800,-1.176,-0.005,5.477,8.419,0.259,0.000,0.000,0.000,0.000,6,0.281,-0.689,4095,4095,3915,4095,5.127,8.331
523,0.000,-2.889,-1.176,0.005,5.324,8.326,0.046,8.800,-1.176,0.000,5.436,8.403,0.229,0.000,0.000,0.000,0.000,6,0.281,-0.689,4095,4095,3919,4095,5.127,8.331
524,0.000,-2.911,-1.176,0.000,5.278,8.350,0.168,8.800,-1.176,0.016,5.484,8.470,0.290,0.000,0.000,0.000,0.000,6,0.281,-0.689,4095,4095,3919,4095,5.219,8.331
525,0.000,-2.911,-1.176,-0.005,5.264,8.343,0.198,8.800,-1.176,-0.005,5.515,8.472,0.259,0.000,0.000,0.000,0.000,6,0.281,-0.689,4095,4095,3917,4095,5.310,8.331
526,0.000,-2.911,-1.176,-0.005,5.230,8.302,0.229,8.800,-1.176,-0.005,5.513,8.450,0.290,0.000,0.000,0.000,0.000,6,0.281,-0.689,4095,4095,3916,4095,5.310,8.240
527,0.000,-2.933,-1.176,-0.005,5.252,8.292,0.198,8.800,-1.176,0.005,5.582,8.438,0.351,0.000,0.000,0.000,0.000,6,0.282,-0.689,4095,4095,3917,4095,5.219,8.331
528,0.000,-2.933,-1.176,0.000,5.259,8.352,0.229,8.800,-1.176,0.005,5.541,8.460,0.381,0.000,0.000,0.000,0.000,6,0.282,-0.689,4095,4095,3919,4095,5.219,8.331
529,0.000,-2.955,-1.176,0.000,5.235,8.364,0.000,8.800,-1.176,0.000,5.510,8.494,0.443,0.000,0.000,0.000,0.000,6,0.281,-0.689,4095,4095,3923,4095,5.219,8.240
530,0.000,-2.955,-1.176,-0.016,5.266,8.359,0.015,8.800,-1.176,-0.016,5.470,8.484,0.290,0.000,0.000,0.000,0.000,6,0.281,-0.689,4095,4095,3924,4095,5.219,8.240
531,0.000,-2.955,-1.176,0.000,5.336,8.412,0.046,8.778,-1.176,0.000,5.453,8.470,0.290,0.000,0.000,0.000,0.000,6,0.281,-0.689,4095,4095,3923,4095,5.219,8.331
532,0.000,-2.977,-1.176,0.000,5.242,8.419,-0.046,8.778,-1.176,0.000,5.453,8.472,0.290,0.000,0.000,0.000,0.000,6,0.281,-0.689,4095,4095,3923,4095,5.219,8.331
533,0.000,-2.977,-1.176,-0.005,5.304,8.412,0.000,8.756,-1.176,0.005,5.462,8.467,0.320,0.000,0.000,0.000,0.000,6,0.281,-0.689,4095,4095,3920,4095,5.219,8.331
534,0.000,-2.977,-1.176,0.000,5.312,8.400,0.107,8.756,-1.176,0.000,5.520,8.446,0.320,0.000,0.000,0.000,0.000,6,0.280,-0.689,4095,4095,3920,4095,5.310,8.331
535,0.000,-2.999,-1.176,0.000,5.240,8.369,0.107,8.756,-1.176,0.000,5.506,8.427,0.473,0.000,0.000,0.000,0.000,6,0.280,-0.689,4095,4095,3922,4095,5.219,8.331
536,0.000,-2.999,-1.176,-0.016,5.257,8.376,0.015,8.756,-1.176,0.000,5.486,8.415,0.534,0.000,0.000,0.000,0.000,6,0.281,-0.689,4095,4095,3924,4095,5.219,8.331
537,0.000,-3.021,-1.176,0.005,5.316,8.386,0.046,8.756,-1.176,0.000,5.439,8.434,0.412,0.000,0.000,0.000,0.000,6,0.281,-0.688,4095,4095,3928,4095,5.310,8.331
538,0.000,-3.021,-1.176,0.005,5.288,8.352,0.000,8.756,-1.176,0.000,5.450,8.460,0.351,0.000,0.000,0.000,0.000,6,0.282,-0.689,4095,4095,3929,4095,5.219,8.331
539,0.000,-3.021,-1.176,0.005,5.300,8.403,0.000,8.756,-1.176,0.000,5.510,8.436,0.412,0.000,0.000,0.000,0.000,6,0.281,-0.689,4095,4095,3929,4095,5.219,8.331
540,0.000,-3.021,-1.176,0.000,5.314,8.400,0.000,8.734,-1.176,0.000,5.491,8.431,0.381,0.000,0.000,0.000,0.000,6,0.281,-0.689,4095,4095,3929,4095,5.310,8.331
541,0.000,-3.021,-1.176,0.000,5.283,8.367,0.000,8.734,-1.176,0.005,5.439,8.465,0.412,0.000,0.000,0.000,0.000,6,0.281,-0.689,4095,4095,3927,4095,5.219,8.331
542,0.000,-3.043,-1.176,0.005,5.328,8.417,0.076,8.734,-1.176,0.005,5.474,8.448,0.290,0.000,0.000,0.000,0.000,6,0.281,-0.689,4095,4095,3927,4095,5.219,8.331
543,0.000,-3.043,-1.176,0.005,5.326,8.374,0.168,8.734,-1.176,-0.005,5.439,8.403,0.259,0.000,0.000,0.000,0.000,6,0.281,-0.689,4095,4095,3929,4095,5.310,8.331
544,0.000,-3.043,-1.176,-0.016,5.328,8.338,0.229,8.712,-1.176,0.000,5.403,8.415,0.443,0.000,0.000,0.000,0.000,6,0.281,-0.688,4095,4095,3931,4095,5.219,8.331
545,0.000,-3.043,-1.176,0.000,5.391,8.391,0.137,8.712,-1.176,0.005,5.455,8.441,0.626,0.000,0.000,0.000,0.000,6,0.281,-0.689,4095,4095,3930,4095,5.310,8.331
546,0.000,-3.043,-1.176,-0.005,5.360,8.383,0.198,8.712,-1.176,0.000,5.474,8.393,0.565,0.000,0.000,0.000,0.000,6,0.281,-0.689,4095,4095,3933,4095,5.310,8.331
547,0.000,-3.043,-1.176,0.000,5.271,8.369,0.015,8.712,-1.176,-0.005,5.443,8.383,0.656,0.000,0.000,0.000,0.000,6,0.280,-0.688,4095,4095,3938,4095,5.310,8.331
548,0.000,-3.043,-1.176,0.000,5.300,8.362,-0.046,8.712,-1.176,0.000,5.355,8.400,0.504,0.000,0.000,0.000,0.000,6,0.281,-0.688,4095,4095,3939,4095,5.310,8.331
549,0.000,-3.043,-1.176,0.000,5.333,8.357,-0.015,8.690,-1.176,0.000,5.338,8.400,0.443,0.000,0.000,0.000,0.000,6,0.281,-0.688,4095,4095,3939,4095,5.310,8.331
550,0.000,-3.043,-1.176,-0.005,5.331,8.371,0.000,8.690,-1.176,0.005,5.371,8.415,0.504,0.000,0.000,0.000,0.000,6,0.281,-0.689,4095,4095,3939,4095,5.219,8.331
551,0.000,-3.043,-1.176,0.000,5.374,8.350,0.107,8.668,-1.176,-0.005,5.393,8.441,0.534,0.000,0.000,0.000,0.000,6,0.280,-0.688,4095,4095,3935,4095,5.219,8.331
552,0.000,-3.043,-1.176,-0.005,5.312,8.319,0.015,8.668,-1.176,0.000,5.352,8.448,0.443,0.000,0.000,0.000,0.000,6,0.281,-0.688,4095,4095,3936,4095,5.310,8.331
553,0.000,-3.043,-1.176,-0.005,5.383,8.379,0.015,8.646,-1.176,0.000,5.343,8.429,0.504,0.000,0.000,0.000,0.000,6,0.281,-0.688,4095,4095,3939,4095,5.310,8.331
554,0.000,-3.043,-1.176,0.000,5.429,8.436,0.107,8.624,-1.176,0.000,5.398,8.398,0.778,0.000,0.000,0.000,0.000,6,0.281,-0.688,4095,4095,3941,4095,5.310,8.331
555,0.000,-3.043,-1.176,-0.005,5.328,8.391,0.168,8.624,-1.176,0.000,5.340,8.395,0.717,0.000,0.000,0.000,0.000,6,0.281,-0.688,4095,4095,3945,4095,5.310,8.240
556,0.000,-3.043,-1.176,0.000,5.360,8.345,0.107,8.624,-1.176,0.005,5.331,8.405,0.565,0.000,0.000,0.000,0.000,6,0.281,-0.688,4095,4095,3947,4095,5.310,8.331
557,0.000,-3.043,-1.176,0.000,5.403,8.383,0.000,8.602,-1.176,0.000,5.345,8.388,0.504,0.000,0.000,0.000,0.000,6,0.281,-0.688,4095,4095,3949,4095,5.402,8.423
558,0.000,-3.021,-1.176,-0.005,5.376,8.393,0.000,8.580,-1.176,0.005,5.309,8.410,0.687,0.000,0.000,0.000,0.000,6,0.281,-0.688,4095,4095,3948,4095,5.310,8.331
559,0.000,-3.021,-1.176,-0.016,5.403,8.374,0.107,8.580,-1.176,0.000,5.324,8.400,0.656,0.000,0.000,0.000,0.000,6,0.281,-0.687,4095,4095,3945,4095,5.310,8.331
560,0.000,-3.021,-1.176,0.005,5.410,8.333,0.107,8.558,-1.176,0.000,5.331,8.388,0.595,0.000,0.000,0.000,0.000,6,0.281,-0.688,4095,4095,3947,4095,5.402,8.331
561,0.000,-3.021,-1.176,0.000,5.369,8.314,0.015,8.558,-1.176,0.000,5.324,8.381,0.534,0.000,0.000,0.000,0.000,6,0.281,-0.688,4095,4095,3947,4095,5.310,8.331
562,0.000,-2.999,-1.176,0.005,5.446,8.393,-0.046,8.537,-1.176,-0.016,5.338,8.362,0.443,0.000,0.000,0.000,0.000,6,0.280,-0.688,4095,4095,3951,4095,5.402,8.331
563,0.000,-2.999,-1.176,0.005,5.369,8.415,-0.046,8.537,-1.176,-0.016,5.369,8.369,0.626,0.000,0.000,0.000,0.000,6,0.281,-0.688,4095,4095,3954,4095,5.402,8.331
564,0.000,-2.999,-1.176,-0.016,5.297,8.417,0.000,8.537,-1.176,0.000,5.295,8.395,0.687,0.000,0.000,0.000,0.000,6,0.281,-0.688,4095,4095,3955,4095,5.310,8.240
565,0.000,-2.999,-1.176,0.005,5.424,8.398,0.137,8.515,-1.176,0.005,5.292,8.388,0.778,0.000,0.000,0.000,0.000,6,0.282,-0.688,4095,4095,3957,4095,5.402,8.331
566,0.000,-2.999,-1.176,0.000,5.455,8.388,0.229,8.493,-1.176,0.000,5.233,8.383,0.839,0.000,0.000,0.000,0.000,6,0.282,-0.688,4095,4095,3954,4095,5.310,8.331
567,0.000,-2.999,-1.176,0.000,5.422,8.424,0.229,8.493,-1.176,0.005,5.249,8.388,0.717,0.000,0.000,0.000,0.000,6,0.282,-0.688,4095,4095,3953,4095,5.219,8.331
568,0.000,-2.999,-1.176,0.000,5.376,8.391,0.259,8.471,-1.176,0.005,5.292,8.388,0.504,0.000,0.000,0.000,0.000,6,0.282,-0.687,4095,4095,3953,4095,5.402,8.331
569,0.000,-2.999,-1.176,-0.005,5.324,8.355,0.137,8.449,-1.176,0.000,5.314,8.403,0.504,0.000,0.000,0.000,0.000,6,0.281,-0.688,4095,4095,3955,4095,5.402,8.331
570,0.000,-2.999,-1.176,0.000,5.403,8.374,0.107,8.449,-1.176,-0.005,5.300,8.383,0.595,0.000,0.000,0.000,0.000,6,0.282,-0.688,4095,4095,3958,4095,5.402,8.423
571,0.000,-2.999,-1.176,-0.016,5.312,8.352,0.168,8.427,-1.176,0.000,5.285,8.362,0.626,0.000,0.000,0.000,0.000,6,0.281,-0.687,4095,4095,3961,4095,5.310,8.331
572,0.000,-2.999,-1.176,0.005,5.288,8.321,0.229,8.427,-1.176,0.000,5.278,8.403,0.565,0.000,0.000,0.000,0.000,6,0.281,-0.687,4095,4095,3963,4095,5.310,8.331
573,0.000,-2.999,-1.176,-0.005,5.357,8.295,0.229,8.405,-1.176,0.000,5.221,8.400,0.473,0.000,0.000,0.000,0.000,6,0.281,-0.688,4095,4095,3962,4095,5.402,8.331
574,0.000,-2.977,-1.176,-0.016,5.393,8.312,0.198,8.383,-1.176,-0.005,5.242,8.376,0.626,0.000,0.000,0.000,0.000,6,0.280,-0.688,4095,4095,3959,4095,5.310,8.331
575,0.000,-2.977,-1.176,-0.016,5.348,8.326,0.473,8.383,-1.176,-0.005,5.240,8.410,0.717,0.000,0.000,0.000,0.000,6,0.280,-0.688,4095,4095,3958,4095,5.219,8.240
576,0.000,-2.977,-1.176,0.000,5.240,8.283,0.534,8.361,-1.176,-0.005,5.271,8.446,0.778,0.000,0.000,0.000,0.000,6,0.281,-0.687,4095,4095,3959,4095,5.310,8.240
577,0.000,-2.999,-1.176,0.000,5.297,8.297,0.443,8.339,-1.176,0.005,5.259,8.453,0.626,0.000,0.000,0.000,0.000,6,0.281,-0.687,4095,4095,3962,4095,5.310,8.240
578,0.000,-2.999,-1.176,0.005,5.328,8.285,0.443,8.317,-1.176,0.000,5.213,8.455,0.534,0.000,0.000,0.000,0.000,6,0.282,-0.687,4095,4095,3966,4095,5.310,8.240
579,0.000,-2.977,-1.176,0.016,5.319,8.264,0.381,8.295,-1.176,0.005,5.266,8.434,0.565,0.000,0.000,0.000,0.000,6,0.280,-0.687,4095,4095,3967,4095,5.219,8.240
580,0.000,-2.977,-1.176,-0.005,5.266,8.240,0.565,8.295,-1.176,-0.016,5.350,8.415,0.687,0.000,0.000,0.000,0.000,6,0.280,-0.687,4095,4095,3973,4095,5.219,8.240
581,0.000,-2.977,-1.176,0.005,5.273,8.280,0.595,8.295,-1.176,0.000,5.316,8.472,0.839,0.000,0.000,0.000,0.000,6,0.280,-0.687,4095,4095,3972,4095,5.310,8.240
582,0.000,-2.977,-1.176,0.000,5.295,8.278,0.595,8.273,-1.176,0.005,5.254,8.508,0.748,0.000,0.000,0.000,0.000,6,0.281,-0.687,4095,4095,3969,4095,5.310,8.240
583,0.000,-2.977,-1.176,-0.005,5.269,8.252,0.473,8.251,-1.176,0.000,5.273,8.467,0.748,0.000,0.000,0.000,0.000,6,0.281,-0.687,4095,4095,3971,4095,5.219,8.240
584,0.000,-2.977,-1.176,0.000,5.304,8.264,0.504,8.229,-1.176,0.000,5.225,8.453,0.595,0.000,0.000,0.000,0.000,6,0.280,-0.687,4095,4095,3973,4095,5.219,8.240
585,0.000,-2.977,-1.176,-0.005,5.288,8.249,0.412,8.229,-1.176,0.016,5.233,8.465,0.534,0.000,0.000,0.000,0.000,6,0.280,-0.687,4095,4095,3971,4095,5.219,8.240
586,0.000,-2.977,-1.176,-0.005,5.295,8.285,0.381,8.207,-1.176,0.000,5.314,8.453,0.473,0.000,0.000,0.000,0.000,6,0.280,-0.687,4095,4095,3974,4095,5.219,8.240
587,0.000,-2.977,-1.176,0.000,5.328,8.295,0.565,8.207,-1.176,-0.005,5.376,8.460,0.595,0.000,0.000,0.000,0.000,6,0.281,-0.687,4095,4095,3976,4095,5.219,8.240
588,0.000,-2.977,-1.176,0.000,5.331,8.288,0.565,8.207,-1.176,0.005,5.379,8.474,0.443,0.000,0.000,0.000,0.000,6,0.281,-0.687,4095,4095,3979,4095,5.219,8.240
589,0.000,-2.977,-1.176,0.000,5.290,8.280,0.595,8.185,-1.176,0.000,5.309,8.486,0.443,0.000,0.000,0.000,0.000,6,0.281,-0.687,4095,4095,3981,4095,5.219,8.240
590,0.000,-2.977,-1.176,0.000,5.247,8.271,0.534,8.185,-1.176,0.000,5.266,8.474,0.534,0.000,0.000,0.000,0.000,6,0.281,-0.687,4095,4095,3981,4095,5.310,8.240
591,0.000,-2.999,-1.176,0.000,5.266,8.271,0.473,8.163,-1.176,-0.005,5.290,8.448,0.534,0.000,0.000,0.000,0.000,6,0.280,-0.687,4095,4095,3979,4095,5.310,8.240
592,0.000,-2.977,-1.176,0.000,5.321,8.309,0.443,8.163,-1.176,0.000,5.302,8.458,0.778,0.000,0.000,0.000,0.000,6,0.281,-0.687,4095,4095,3977,4095,5.219,8.240
593,0.000,-2.999,-1.176,0.000,5.247,8.261,0.473,8.141,-1.176,0.000,5.254,8.489,0.656,0.000,0.000,0.000,0.000,6,0.281,-0.687,4095,4095,3977,4095,5.219,8.240
594,0.000,-2.999,-1.176,0.005,5.213,8.235,0.443,8.119,-1.176,0.005,5.233,8.534,0.595,0.000,0.000,0.000,0.000,6,0.280,-0.687,4095,4095,3982,4095,5.219,8.240
595,0.000,-2.999,-1.176,0.005,5.261,8.283,0.473,8.097,-1.176,0.000,5.235,8.518,0.687,0.000,0.000,0.000,0.000,6,0.280,-0.687,4095,4095,3983,4095,5.310,8.240
596,0.000,-2.999,-1.176,0.016,5.278,8.304,0.504,8.097,-1.176,0.005,5.302,8.503,0.565,0.000,0.000,0.000,0.000,6,0.280,-0.687,4095,4095,3990,4095,5.219,8.240
597,0.000,-2.999,-1.176,0.000,5.345,8.312,0.687,8.075,-1.176,0.000,5.338,8.486,0.565,0.000,0.000,0.000,0.000,6,0.281,-0.687,4095,4095,3991,4095,5.127,8.148
598,0.000,-2.999,-1.176,0.005,5.345,8.316,0.595,8.075,-1.176,0.005,5.264,8.462,0.504,0.000,0.000,0.000,0.000,6,0.281,-0.687,4095,4095,3991,4095,5.219,8.240
599,0.000,-2.999,-1.176,0.000,5.266,8.333,0.473,8.053,-1.176,0.000,5.316,8.491,0.320,0.000,0.000,0.000,0.000,6,0.280,-0.687,4095,4095,3991,4095,5.219,8.240
600,0.000,-2.999,-1.176,0.000,5.276,8.297,0.443,8.053,-1.176,0.000,5.350,8.486,0.412,0.000,0.000,0.000,0.000,6,0.281,-0.687,4095,4095,3986,4095,5.310,8.240
601,0.000,-2.999,-1.176,0.000,5.314,8.302,0.443,8.053,-1.176,0.016,5.328,8.467,0.534,0.000,0.000,0.000,0.000,6,0.280,-0.687,4095,4095,3987,4095,5.310,8.240
602,0.000,-2.999,-1.176,-0.005,5.245,8.300,0.443,8.053,-1.176,0.000,5.374,8.458,0.626,0.000,0.000,0.000,0.000,6,0.281,-0.687,4095,4095,3988,4095,5.219,8.331
603,0.000,-2.999,-1.176,0.000,5.259,8.304,0.778,8.053,-1.176,-0.005,5.383,8.458,0.778,0.000,0.000,0.000,0.000,6,0.281,-0.687,4095,4095,3991,4095,5.219,8.240
604,0.000,-2.999,-1.176,-0.005,5.360,8.309,0.809,8.053,-1.176,-0.005,5.371,8.446,0.870,0.000,0.000,0.000,0.000,6,0.281,-0.687,4095,4095,3996,4095,5.310,8.240
605,0.000,-2.999,-1.176,0.005,5.343,8.278,0.595,8.031,-1.176,0.000,5.314,8.477,0.748,0.000,0.000,0.000,0.000,6,0.282,-0.687,4095,4095,3996,4095,5.219,8.240
606,0.000,-2.999,-1.176,0.016,5.328,8.292,0.595,8.031,-1.176,0.005,5.297,8.541,0.656,0.000,0.000,0.000,0.000,6,0.282,-0.687,4095,4095,3996,4095,5.219,8.240
607,0.000,-2.999,-1.176,0.000,5.357,8.319,0.656,8.009,-1.176,0.005,5.285,8.551,0.565,0.000,0.000,0.000,0.000,6,0.281,-0.687,4095,4095,3995,4095,5.310,8.240
608,0.000,-2.999,-1.154,-0.027,5.309,8.280,0.595,8.009,-1.176,0.016,5.326,8.429,0.717,0.000,0.000,0.000,0.000,6,0.281,-0.687,4095,4095,3993,4095,5.310,8.240
609,0.000,-2.999,-1.154,-0.005,5.297,8.242,0.595,8.009,-1.176,0.000,5.247,8.474,0.778,0.000,0.000,0.000,0.000,6,0.282,-0.687,4095,4095,3995,4095,5.310,8.240
610,0.000,-2.977,-1.154,0.005,5.283,8.271,0.656,7.987,-1.176,-0.005,5.333,8.510,0.717,0.000,0.000,0.000,0.000,6,0.281,-0.687,4095,4095,3996,4095,5.310,8.240
611,0.000,-2.977,-1.154,0.000,5.269,8.264,0.778,7.987,-1.176,0.000,5.386,8.460,0.717,0.000,0.000,0.000,0.000,6,0.281,-0.687,4095,4095,3999,4095,5.310,8.240
612,0.000,-2.977,-1.154,0.005,5.302,8.319,0.687,7.987,-1.176,0.000,5.383,8.431,0.748,0.000,0.000,0.000,0.000,6,0.281,-0.687,4095,4095,4001,4095,5.219,8.240
613,0.000,-2.977,-1.154,-0.005,5.348,8.357,0.748,7.987,-1.176,-0.005,5.360,8.453,0.717,0.000,0.000,0.000,0.000,6,0.280,-0.687,4095,4095,4001,4095,5.219,8.240
614,0.000,-2.977,-1.154,0.005,5.331,8.319,0.656,7.987,-1.176,0.000,5.316,8.474,0.626,0.000,0.000,0.000,0.000,6,0.281,-0.687,4095,4095,4001,4095,5.219,8.240
615,0.000,-2.977,-1.154,0.000,5.326,8.340,0.534,7.987,-1.176,0.000,5.338,8.458,0.626,0.000,0.000,0.000,0.000,6,0.281,-0.686,4095,4095,3999,4095,5.219,8.240
616,0.000,-2.977,-1.154,-0.005,5.314,8.333,0.443,7.987,-1.176,-0.005,5.369,8.460,0.717,0.000,0.000,0.000,0.000,6,0.281,-0.686,4095,4095,3999,4095,5.310,8.331
617,0.000,-2.977,-1.154,0.016,5.261,8.280,0.504,7.987,-1.176,0.005,5.405,8.446,0.778,0.000,0.000,0.000,0.000,6,0.281,-0.687,4095,4095,3999,4095,5.310,8.240
618,0.000,-2.977,-1.154,-0.005,5.271,8.273,0.351,7.987,-1.176,0.000,5.391,8.434,0.748,0.000,0.000,0.000,0.000,6,0.281,-0.687,4095,4095,4002,4095,5.310,8.331
619,0.000,-2.977,-1.154,0.000,5.285,8.307,0.320,7.987,-1.176,-0.005,5.336,8.415,0.748,0.000,0.000,0.000,0.000,6,0.281,-0.686,4095,4095,4006,4095,5.310,8.331
620,0.000,-2.977,-1.154,0.016,5.304,8.297,0.351,7.987,-1.176,-0.027,5.352,8.393,0.809,0.000,0.000,0.000,0.000,6,0.280,-0.687,4095,4095,4007,4095,5.219,8.240
621,0.000,-2.977,-1.154,-0.005,5.333,8.295,0.229,7.987,-1.176,0.000,5.355,8.419,0.839,0.000,0.000,0.000,0.000,6,0.281,-0.686,4095,4095,4009,4095,5.219,8.240
622,0.000,-2.977,-1.154,0.000,5.386,8.297,0.351,7.987,-1.176,-0.005,5.292,8.431,0.717,0.000,0.000,0.000,0.000,6,0.281,-0.686,4095,4095,4008,4095,5.219,8.240
623,0.000,-2.977,-1.154,0.000,5.391,8.285,0.534,7.987,-1.176,-0.005,5.307,8.448,0.717,0.000,0.000,0.000,0.000,6,0.281,-0.686,4095,4095,4010,4095,5.219,8.240
624,0.000,-2.955,-1.154,0.000,5.336,8.295,0.443,7.965,-1.176,0.005,5.314,8.438,0.717,0.000,0.000,0.000,0.000,6,0.281,-0.686,4095,4095,4011,4095,5.310,8.240
625,0.000,-2.955,-1.154,0.000,5.352,8.307,0.290,7.965,-1.176,-0.005,5.257,8.427,0.626,0.000,0.000,0.000,0.000,6,0.281,-0.685,4095,4095,4010,4095,5.310,8.240
626,0.000,-2.955,-1.154,0.000,5.309,8.297,0.351,7.965,-1.176,0.000,5.290,8.419,0.717,0.000,0.000,0.000,0.000,6,0.281,-0.686,4095,4095,4008,4095,5.310,8.240
627,0.000,-2.955,-1.154,-0.005,5.333,8.312,0.107,7.965,-1.176,0.005,5.379,8.400,0.778,0.000,0.000,0.000,0.000,6,0.281,-0.686,4095,4095,4008,4095,5.310,8.240
628,0.000,-2.955,-1.154,-0.005,5.453,8.379,0.259,7.965,-1.176,0.005,5.364,8.367,0.595,0.000,0.000,0.000,0.000,6,0.280,-0.686,4095,4095,4009,4095,5.310,8.240
629,0.000,-2.933,-1.132,0.000,5.419,8.386,0.351,7.965,-1.176,0.000,5.249,8.357,0.565,0.000,0.000,0.000,0.000,6,0.280,-0.686,4095,4095,4013,4095,5.310,8.240
630,0.000,-2.933,-1.132,0.000,5.367,8.312,0.168,7.965,-1.176,-0.005,5.216,8.381,0.626,0.000,0.000,0.000,0.000,6,0.280,-0.686,4095,4095,4015,4095,5.310,8.240
631,0.000,-2.933,-1.132,-0.005,5.412,8.304,0.198,7.943,-1.176,0.005,5.233,8.398,0.656,0.000,0.000,0.000,0.000,6,0.281,-0.686,4095,4095,4015,4095,5.402,8.331
632,0.000,-2.911,-1.132,0.000,5.446,8.338,0.259,7.943,-1.176,0.016,5.257,8.388,0.626,0.000,0.000,0.000,0.000,6,0.281,-0.686,4095,4095,4014,4095,5.402,8.331
633,0.000,-2.911,-1.132,-0.005,5.403,8.319,0.198,7.943,-1.176,0.000,5.257,8.407,0.656,0.000,0.000,0.000,0.000,6,0.281,-0.686,4095,4095,4013,4095,5.310,8.240
634,0.000,-2.911,-1.132,0.016,5.336,8.338,0.198,7.921,-1.176,0.000,5.259,8.446,0.565,0.000,0.000,0.000,0.000,6,0.281,-0.686,4095,4095,4011,4095,5.402,8.240
635,0.000,-2.911,-1.132,0.000,5.345,8.369,0.198,7.921,-1.176,0.005,5.264,8.427,0.534,0.000,0.000,0.000,0.000,6,0.280,-0.686,4095,4095,4015,4095,5.402,8.331
636,0.000,-2.911,-1.132,0.005,5.362,8.379,0.168,7.921,-1.176,0.027,5.259,8.417,0.443,0.000,0.000,0.000,0.000,6,0.281,-0.686,4095,4095,4017,4095,5.402,8.240
637,0.000,-2.911,-1.132,-0.016,5.331,8.374,0.229,7.899,-1.176,0.005,5.271,8.403,0.595,0.000,0.000,0.000,0.000,6,0.281,-0.685,4095,4095,4021,4095,5.310,8.331
638,0.000,-2.889,-1.132,0.005,5.398,8.343,0.259,7.899,-1.176,-0.005,5.223,8.415,0.595,0.000,0.000,0.000,0.000,6,0.281,-0.686,4095,4095,4023,4095,5.310,8.331
639,0.000,-2.889,-1.132,-0.005,5.307,8.309,0.259,7.899,-1.176,0.005,5.213,8.417,0.443,0.000,0.000,0.000,0.000,6,0.280,-0.686,4095,4095,4023,4095,5.310,8.331
640,0.000,-2.889,-1.132,0.000,5.276,8.348,0.351,7.877,-1.176,-0.005,5.221,8.429,0.565,0.000,0.000,0.000,0.000,6,0.280,-0.686,4095,4095,4023,4095,5.310,8.331
641,0.000,-2.889,-1.132,0.005,5.398,8.326,0.351,7.877,-1.176,0.000,5.154,8.441,0.534,0.000,0.000,0.000,0.000,6,0.281,-0.686,4095,4095,4021,4095,5.219,8.240
642,0.000,-2.889,-1.132,0.000,5.328,8.304,0.259,7.855,-1.176,-0.005,5.161,8.395,0.565,0.000,0.000,0.000,0.000,6,0.281,-0.686,4095,4095,4019,4095,5.219,8.240
643,0.000,-2.889,-1.110,0.000,5.230,8.292,0.168,7.833,-1.176,-0.005,5.211,8.395,0.504,0.000,0.000,0.000,0.000,6,0.281,-0.686,4095,4095,4022,4095,5.219,8.331
644,0.000,-2.889,-1.110,0.005,5.319,8.331,0.137,7.833,-1.176,-0.005,5.230,8.405,0.412,0.000,0.000,0.000,0.000,6,0.282,-0.686,4095,4095,4023,4095,5.310,8.240
645,0.000,-2.889,-1.110,-0.005,5.419,8.381,0.320,7.833,-1.176,0.000,5.211,8.438,0.443,0.000,0.000,0.000,0.000,6,0.282,-0.686,4095,4095,4027,4095,5.310,8.240
646,0.000,-2.889,-1.110,-0.005,5.283,8.350,0.320,7.811,-1.176,-0.005,5.233,8.467,0.565,0.000,0.000,0.000,0.000,6,0.281,-0.686,4095,4095,4028,4095,5.219,8.240
647,0.000,-2.889,-1.110,0.016,5.355,8.324,0.351,7.811,-1.176,0.000,5.240,8.460,0.565,0.000,0.000,0.000,0.000,6,0.281,-0.686,4095,4095,4029,4095,5.310,8.331
648,0.000,-2.889,-1.110,-0.027,5.381,8.290,0.229,7.789,-1.176,-0.005,5.170,8.441,0.320,0.000,0.000,0.000,0.000,6,0.281,-0.686,4095,4095,4027,4095,5.402,8.331
649,0.000,-2.889,-1.110,0.005,5.247,8.292,0.351,7.789,-1.176,-0.005,5.190,8.443,0.290,0.000,0.000,0.000,0.000,6,0.281,-0.686,4095,4095,4025,4095,5.219,8.331
650,0.000,-2.889,-1.110,0.000,5.245,8.304,0.412,7.767,-1.176,0.000,5.194,8.484,0.381,0.000,0.000,0.000,0.000,6,0.281,-0.686,4095,4095,4026,4095,5.310,8.240
651,0.000,-2.889,-1.110,0.005,5.292,8.307,0.198,7.767,-1.176,0.016,5.192,8.458,0.198,0.000,0.000,0.000,0.000,6,0.281,-0.686,4095,4095,4027,4095,5.310,8.240
652,0.000,-2.889,-1.110,-0.005,5.245,8.307,0.168,7.745,-1.176,0.000,5.206,8.482,0.076,0.000,0.000,0.000,0.000,6,0.280,-0.686,4095,4095,4029,4095,5.219,8.240
653,0.000,-2.911,-1.110,-0.005,5.312,8.348,0.198,7.745,-1.176,0.027,5.199,8.472,0.290,0.000,0.000,0.000,0.000,6,0.280,-0.686,4095,4095,4033,4095,5.219,8.240
654,0.000,-2.911,-1.110,0.000,5.321,8.352,0.198,7.724,-1.176,0.005,5.125,8.486,0.259,0.000,0.000,0.000,0.000,6,0.281,-0.685,4095,4095,4034,4095,5.219,8.240
655,0.000,-2.911,-1.110,0.000,5.338,8.307,0.198,7.702,-1.176,0.000,5.142,8.501,0.076,0.000,0.000,0.000,0.000,6,0.281,-0.686,4095,4095,4034,4095,5.219,8.240
656,0.000,-2.889,-1.110,0.005,5.345,8.278,0.046,7.680,-1.176,-0.005,5.182,8.501,0.015,0.000,0.000,0.000,0.000,6,0.281,-0.686,4095,4095,4033,4095,5.310,8.331
657,0.000,-2.889,-1.088,0.005,5.283,8.259,0.198,7.680,-1.176,0.005,5.166,8.486,-0.046,0.000,0.000,0.000,0.000,6,0.280,-0.686,4095,4095,4029,4095,5.310,8.331
658,0.000,-2.889,-1.088,0.005,5.288,8.252,0.107,7.658,-1.176,0.000,5.154,8.484,0.076,0.000,0.000,0.000,0.000,6,0.280,-0.686,4095,4095,4031,4095,5.310,8.240
659,0.000,-2.889,-1.088,0.000,5.266,8.297,0.046,7.636,-1.176,0.000,5.218,8.503,0.076,0.000,0.000,0.000,0.000,6,0.281,-0.686,4095,4095,4031,4095,5.310,8.240
660,0.000,-2.889,-1.088,-0.005,5.199,8.290,0.168,7.636,-1.176,0.005,5.242,8.460,0.046,0.000,0.000,0.000,0.000,6,0.280,-0.686,4095,4095,4033,4095,5.219,8.240
661,0.000,-2.911,-1.088,0.005,5.158,8.221,0.107,7.636,-1.176,-0.005,5.201,8.462,0.137,0.000,0.000,0.000,0.000,6,0.281,-0.686,4095,4095,4038,4095,5.219,8.240
662,0.000,-2.911,-1.088,-0.016,5.249,8.273,0.015,7.614,-1.176,0.005,5.192,8.501,0.000,0.000,0.000,0.000,0.000,6,0.280,-0.686,4095,4095,4033,4095,5.219,8.240
663,0.000,-2.911,-1.088,0.000,5.345,8.292,0.015,7.614,-1.176,0.000,5.173,8.486,0.015,0.000,0.000,0.000,0.000,6,0.280,-0.686,4095,4095,4038,4095,5.127,8.240
664,0.000,-2.911,-1.088,0.005,5.233,8.247,-0.015,7.592,-1.176,-0.005,5.156,8.522,0.000,0.000,0.000,0.000,0.000,6,0.280,-0.685,4095,4095,4041,4095,5.127,8.148
665,0.000,-2.911,-1.088,-0.005,5.276,8.213,0.015,7.570,-1.176,-0.005,5.175,8.539,0.000,0.000,0.000,0.000,0.000,6,0.281,-0.686,4095,4095,4040,4095,5.219,8.240
666,0.000,-2.889,-1.088,0.005,5.407,8.249,0.137,7.570,-1.176,0.005,5.194,8.489,0.000,0.000,0.000,0.000,0.000,6,0.281,-0.686,4095,4095,4039,4095,5.310,8.240
667,0.000,-2.889,-1.088,-0.005,5.352,8.319,0.015,7.570,-1.176,0.000,5.199,8.453,0.000,0.000,0.000,0.000,0.000,6,0.280,-0.686,4095,4095,4036,4095,5.219,8.240
668,0.000,-2.889,-1.088,0.005,5.283,8.292,-0.046,7.548,-1.176,-0.005,5.254,8.460,-0.076,0.000,0.000,0.000,0.000,6,0.280,-0.686,4095,4095,4035,4095,5.219,8.148
669,0.000,-2.889,-1.088,0.000,5.266,8.259,-0.046,7.548,-1.176,-0.005,5.276,8.496,-0.046,0.000,0.000,0.000,0.000,6,0.280,-0.686,4095,4095,4037,4095,5.402,8.240
670,0.000,-2.889,-1.088,-0.005,5.254,8.245,-0.137,7.548,-1.176,0.000,5.213,8.496,-0.015,0.000,0.000,0.000,0.000,6,0.281,-0.686,4095,4095,4039,4095,5.310,8.240
671,0.000,-2.889,-1.088,0.005,5.249,8.237,-0.076,7.526,-1.176,0.000,5.154,8.541,-0.076,0.000,0.000,0.000,0.000,6,0.281,-0.686,4095,4095,4043,4095,5.219,8.240
672,0.000,-2.889,-1.066,0.000,5.257,8.285,-0.137,7.526,-1.176,0.005,5.190,8.580,-0.107,0.000,0.000,0.000,0.000,6,0.281,-0.686,4095,4095,4043,4095,5.219,8.240
673,0.000,-2.889,-1.066,0.000,5.197,8.271,-0.351,7.504,-1.176,0.000,5.242,8.541,-0.107,0.000,0.000,0.000,0.000,6,0.281,-0.686,4095,4095,4043,4095,5.219,8.240
674,0.000,-2.889,-1.066,0.000,5.257,8.283,-0.473,7.504,-1.176,0.000,5.249,8.506,0.015,0.000,0.000,0.000,0.000,6,0.281,-0.686,4095,4095,4045,4095,5.219,8.148
675,0.000,-2.889,-1.066,0.005,5.336,8.297,-0.534,7.504,-1.176,0.005,5.285,8.489,0.076,0.000,0.000,0.000,0.000,6,0.280,-0.686,4095,4095,4041,4095,5.219,8.240
676,0.000,-2.889,-1.066,-0.005,5.383,8.331,-0.412,7.504,-1.176,0.000,5.216,8.518,0.076,0.000,0.000,0.000,0.000,6,0.281,-0.685,4095,4095,4041,4095,5.127,8.240
677,0.000,-2.889,-1.066,0.000,5.405,8.359,-0.504,7.482,-1.176,0.000,5.197,8.501,0.046,0.000,0.000,0.000,0.000,6,0.280,-0.686,4095,4095,4042,4095,5.219,8.240
678,0.000,-2.867,-1.066,0.005,5.324,8.307,-0.534,7.482,-1.176,-0.005,5.266,8.462,0.000,0.000,0.000,0.000,0.000,6,0.280,-0.686,4095,4095,4045,4095,5.310,8.240
679,0.000,-2.867,-1.066,0.000,5.297,8.321,-0.626,7.482,-1.176,0.005,5.218,8.465,-0.107,0.000,0.000,0.000,0.000,6,0.280,-0.686,4095,4095,4047,4095,5.310,8.331
680,0.000,-2.867,-1.066,0.000,5.285,8.338,-0.748,7.482,-1.176,-0.016,5.134,8.491,-0.137,0.000,0.000,0.000,0.000,6,0.281,-0.686,4095,4095,4049,4095,5.402,8.331
681,0.000,-2.867,-1.066,0.000,5.336,8.357,-0.504,7.460,-1.176,0.000,5.151,8.503,-0.259,0.000,0.000,0.000,0.000,6,0.281,-0.686,4095,4095,4050,4095,5.310,8.240
682,0.000,-2.867,-1.066,-0.005,5.328,8.333,-0.504,7.460,-1.176,-0.005,5.254,8.496,-0.198,0.000,0.000,0.000,0.000,6,0.281,-0.685,4095,4095,4049,4095,5.219,8.240
683,0.000,-2.867,-1.066,-0.005,5.395,8.371,-0.717,7.460,-1.176,0.005,5.300,8.486,-0.259,0.000,0.000,0.000,0.000,6,0.282,-0.686,4095,4095,4045,4095,5.219,8.331
684,0.000,-2.867,-1.066,0.000,5.434,8.359,-0.748,7.460,-1.176,0.000,5.230,8.479,-0.290,0.000,0.000,0.000,0.000,6,0.282,-0.686,4095,4095,4045,4095,5.310,8.331
685,0.000,-2.867,-1.066,0.016,5.333,8.326,-0.565,7.460,-1.176,-0.005,5.175,8.522,-0.626,0.000,0.000,0.000,0.000,6,0.281,-0.686,4095,4095,4047,4095,5.310,8.331
686,0.000,-2.867,-1.066,-0.016,5.324,8.340,-0.504,7.438,-1.176,0.005,5.175,8.496,-0.565,0.000,0.000,0.000,0.000,6,0.282,-0.686,4095,4095,4051,4095,5.310,8.331
687,0.000,-2.846,-1.066,0.000,5.352,8.316,-0.504,7.438,-1.176,0.000,5.218,8.470,-0.534,0.000,0.000,0.000,0.000,6,0.282,-0.686,4095,4095,4054,4095,5.402,8.331
688,0.000,-2.846,-1.066,0.005,5.283,8.288,-0.443,7.438,-1.176,0.016,5.245,8.506,-0.626,0.000,0.000,0.000,0.000,6,0.281,-0.686,4095,4095,4055,4095,5.310,8.240
689,0.000,-2.846,-1.066,-0.005,5.348,8.359,-0.504,7.438,-1.176,0.000,5.257,8.525,-0.626,0.000,0.000,0.000,0.000,6,0.281,-0.686,4095,4095,4055,4095,5.310,8.331
690,0.000,-2.846,-1.066,0.005,5.431,8.355,-0.504,7.416,-1.176,0.000,5.230,8.527,-0.412,0.000,0.000,0.000,0.000,6,0.281,-0.686,4095,4095,4052,4095,5.310,8.240
691,0.000,-2.846,-1.044,0.005,5.407,8.321,-0.595,7.416,-1.176,0.000,5.204,8.520,-0.534,0.000,0.000,0.000,0.000,6,0.280,-0.686,4095,4095,4050,4095,5.219,8.240
692,0.000,-2.824,-1.044,0.027,5.388,8.259,-0.565,7.416,-1.176,0.000,5.161,8.527,-0.351,0.000,0.000,0.000,0.000,6,0.280,-0.686,4095,4095,4051,4095,5.310,8.331
693,0.000,-2.802,-1.044,0.005,5.419,8.259,-0.565,7.394,-1.176,-0.005,5.204,8.539,-0.259,0.000,0.000,0.000,0.000,6,0.281,-0.685,4095,4095,4052,4095,5.402,8.331
694,0.000,-2.802,-1.044,0.005,5.410,8.319,-0.656,7.394,-1.176,-0.005,5.223,8.520,-0.351,0.000,0.000,0.000,0.000,6,0.281,-0.686,4095,4095,4055,4095,5.402,8.240
695,0.000,-2.802,-1.044,-0.016,5.355,8.316,-0.687,7.394,-1.176,0.000,5.170,8.508,-0.504,0.000,0.000,0.000,0.000,6,0.281,-0.686,4095,4095,4058,4095,5.310,8.240
696,0.000,-2.802,-1.044,0.000,5.357,8.307,-0.504,7.372,-1.176,0.000,5.237,8.515,-0.504,0.000,0.000,0.000,0.000,6,0.280,-0.686,4095,4095,4059,4095,5.402,8.240
697,0.000,-2.780,-1.044,0.000,5.460,8.304,-0.504,7.372,-1.176,0.000,5.187,8.506,-0.504,0.000,0.000,0.000,0.000,6,0.280,-0.685,4095,4095,4058,4095,5.402,8.240
698,0.000,-2.758,-1.044,0.000,5.458,8.288,-0.443,7.372,-1.176,-0.005,5.166,8.498,-0.351,0.000,0.000,0.000,0.000,6,0.280,-0.685,4095,4095,4055,4095,5.310,8.240
699,0.000,-2.758,-1.044,0.005,5.403,8.307,-0.504,7.372,-1.176,0.000,5.182,8.470,-0.443,0.000,0.000,0.000,0.000,6,0.281,-0.686,4095,4095,4056,4095,5.310,8.240
700,0.000,-2.736,-1.044,0.016,5.563,8.345,-0.504,7.350,-1.176,0.000,5.218,8.467,-0.473,0.000,0.000,0.000,0.000,6,0.281,-0.685,4095,4095,4057,4095,5.402,8.240
701,0.000,-2.714,-1.044,0.005,5.518,8.314,-0.504,7.350,-1.176,0.005,5.223,8.482,-0.229,0.000,0.000,0.000,0.000,6,0.280,-0.685,4095,4095,4056,4095,5.402,8.240
702,0.000,-2.714,-1.044,0.005,5.333,8.297,-0.626,7.350,-1.176,0.005,5.235,8.465,-0.198,0.000,0.000,0.000,0.000,6,0.281,-0.686,4095,4095,4057,4095,5.402,8.240
703,0.000,-2.714,-1.044,-0.005,5.407,8.304,-0.565,7.350,-1.176,0.000,5.273,8.443,-0.320,0.000,0.000,0.000,0.000,6,0.281,-0.684,4095,4095,4060,4095,5.493,8.331
704,0.000,-2.692,-1.044,0.000,5.508,8.324,-0.626,7.350,-1.176,-0.005,5.240,8.434,-0.290,0.000,0.000,0.000,0.000,6,0.281,-0.685,4095,4095,4063,4095,5.493,8.240
705,0.000,-2.692,-1.044,-0.005,5.422,8.333,-0.626,7.372,-1.176,-0.005,5.237,8.415,-0.198,0.000,0.000,0.000,0.000,6,0.281,-0.685,4095,4095,4063,4095,5.310,8.240
706,0.000,-2.670,-1.044,0.005,5.405,8.362,-0.717,7.372,-1.176,0.000,5.304,8.438,-0.198,0.000,0.000,0.000,0.000,6,0.281,-0.685,4095,4095,4063,4095,5.402,8.240
707,0.000,-2.670,-1.044,0.000,5.575,8.393,-0.565,7.372,-1.176,0.005,5.290,8.465,-0.198,0.000,0.000,0.000,0.000,6,0.281,-0.685,4095,4095,4062,4095,5.493,8.240
708,0.000,-2.648,-1.044,0.000,5.575,8.379,-0.565,7.372,-1.176,0.000,5.264,8.460,-0.229,0.000,0.000,0.000,0.000,6,0.280,-0.685,4095,4095,4059,4095,5.402,8.331
709,0.000,-2.626,-1.022,0.000,5.529,8.374,-0.534,7.372,-1.176,0.005,5.300,8.419,-0.351,0.000,0.000,0.000,0.000,6,0.281,-0.685,4095,4095,4058,4095,5.402,8.331
710,0.000,-2.626,-1.022,0.000,5.537,8.324,-0.351,7.394,-1.176,-0.005,5.225,8.407,-0.473,0.000,0.000,0.000,0.000,6,0.281,-0.685,4095,4095,4058,4095,5.493,8.331
711,0.000,-2.604,-1.022,-0.005,5.474,8.302,-0.381,7.394,-1.176,0.000,5.178,8.446,-0.351,0.000,0.000,0.000,0.000,6,0.280,-0.685,4095,4095,4061,4095,5.493,8.331
712,0.000,-2.604,-1.022,0.005,5.422,8.355,-0.412,7.394,-1.176,0.005,5.285,8.434,-0.137,0.000,0.000,0.000,0.000,6,0.281,-0.685,4095,4095,4064,4095,5.493,8.331
713,0.000,-2.582,-1.022,0.000,5.467,8.410,-0.473,7.394,-1.176,0.000,5.321,8.458,-0.076,0.000,0.000,0.000,0.000,6,0.280,-0.685,4095,4095,4067,4095,5.493,8.240
714,0.000,-2.582,-1.022,0.000,5.506,8.415,-0.565,7.394,-1.176,0.000,5.237,8.482,-0.168,0.000,0.000,0.000,0.000,6,0.281,-0.685,4095,4095,4066,4095,5.402,8.240
715,0.000,-2.582,-1.022,0.000,5.427,8.381,-0.565,7.394,-1.176,0.000,5.283,8.465,-0.259,0.000,0.000,0.000,0.000,6,0.281,-0.685,4095,4095,4063,4095,5.402,8.331
716,0.000,-2.582,-1.022,-0.005,5.470,8.388,-0.443,7.394,-1.176,-0.005,5.352,8.458,-0.168,0.000,0.000,0.000,0.000,6,0.280,-0.685,4095,4095,4062,4095,5.402,8.331
717,0.000,-2.560,-1.022,0.000,5.513,8.407,-0.534,7.416,-1.176,-0.016,5.254,8.462,-0.137,0.000,0.000,0.000,0.000,6,0.281,-0.685,4095,4095,4060,4095,5.493,8.331
718,0.000,-2.560,-1.022,-0.005,5.503,8.371,-0.504,7.416,-1.176,0.000,5.218,8.477,-0.198,0.000,0.000,0.000,0.000,6,0.280,-0.685,4095,4095,4062,4095,5.402,8.331
719,0.000,-2.538,-1.022,0.000,5.518,8.362,-0.443,7.416,-1.176,0.000,5.283,8.424,-0.107,0.000,0.000,0.000,0.000,6,0.281,-0.685,4095,4095,4063,4095,5.402,8.331
720,0.000,-2.538,-1.022,0.005,5.527,8.410,-0.229,7.416,-1.176,0.005,5.300,8.369,-0.137,0.000,0.000,0.000,0.000,6,0.281,-0.685,4095,4095,4067,4095,5.493,8.331
721,0.000,-2.538,-1.022,0.000,5.506,8.379,-0.107,7.416,-1.176,-0.016,5.264,8.415,-0.290,0.000,0.000,0.000,0.000,6,0.281,-0.685,4095,4095,4067,4095,5.493,8.331
722,0.000,-2.516,-1.022,0.000,5.460,8.331,-0.076,7.438,-1.176,0.000,5.316,8.422,-0.076,0.000,0.000,0.000,0.000,6,0.282,-0.685,4095,4095,4067,4095,5.493,8.331
723,0.000,-2.516,-1.022,0.005,5.472,8.395,-0.137,7.438,-1.176,0.000,5.360,8.417,0.076,0.000,0.000,0.000,0.000,6,0.282,-0.685,4095,4095,4066,4095,5.493,8.331
724,0.000,-2.516,-1.022,0.000,5.520,8.379,-0.076,7.438,-1.176,0.000,5.218,8.462,0.015,0.000,0.000,0.000,0.000,6,0.281,-0.685,4095,4095,4063,4095,5.493,8.331
725,0.000,-2.494,-1.022,0.000,5.403,8.278,-0.107,7.438,-1.176,-0.005,5.235,8.470,-0.015,0.000,0.000,0.000,0.000,6,0.281,-0.685,4095,4095,4063,4095,5.402,8.331
726,0.000,-2.494,-1.022,0.005,5.453,8.319,-0.076,7.438,-1.176,0.000,5.352,8.436,0.015,0.000,0.000,0.000,0.000,6,0.281,-0.685,4095,4095,4063,4095,5.402,8.331
727,0.000,-2.494,-1.022,-0.005,5.506,8.328,-0.046,7.460,-1.176,0.000,5.312,8.427,0.259,0.000,0.000,0.000,0.000,6,0.281,-0.685,4095,4095,4065,4095,5.493,8.331
728,0.000,-2.472,-1.022,-0.005,5.400,8.338,-0.015,7.460,-1.176,0.000,5.283,8.438,0.259,0.000,0.000,0.000,0.000,6,0.281,-0.685,4095,4095,4069,4095,5.402,8.240
729,0.000,-2.472,-1.022,0.005,5.422,8.379,-0.046,7.460,-1.176,0.000,5.302,8.482,0.168,0.000,0.000,0.000,0.000,6,0.281,-0.685,4095,4095,4068,4095,5.402,8.240
730,0.000,-2.472,-1.022,-0.005,5.474,8.374,0.015,7.460,-1.176,0.000,5.304,8.522,0.107,0.000,0.000,0.000,0.000,6,0.280,-0.685,4095,4095,4068,4095,5.493,8.240
731,0.000,-2.472,-1.022,0.000,5.441,8.324,0.046,7.460,-1.176,0.016,5.264,8.494,0.107,0.000,0.000,0.000,0.000,6,0.281,-0.685,4095,4095,4066,4095,5.310,8.331
732,0.000,-2.472,-1.022,0.005,5.484,8.312,0.046,7.460,-1.176,0.005,5.254,8.498,0.107,0.000,0.000,0.000,0.000,6,0.281,-0.684,4095,4095,4063,4095,5.402,8.331
733,0.000,-2.450,-1.022,0.000,5.541,8.381,0.381,7.460,-1.176,0.000,5.273,8.498,0.137,0.000,0.000,0.000,0.000,6,0.281,-0.685,4095,4095,4063,4095,5.402,8.331
734,0.000,-2.450,-1.022,0.005,5.439,8.326,0.381,7.460,-1.176,0.000,5.312,8.489,0.351,0.000,0.000,0.000,0.000,6,0.281,-0.685,4095,4095,4065,4095,5.402,8.240
735,0.000,-2.450,-1.000,-0.005,5.453,8.292,0.198,7.460,-1.176,0.000,5.319,8.541,0.504,0.000,0.000,0.000,0.000,6,0.281,-0.685,4095,4095,4068,4095,5.402,8.240
736,0.000,-2.428,-1.000,0.005,5.470,8.292,0.198,7.460,-1.176,-0.005,5.340,8.527,0.473,0.000,0.000,0.000,0.000,6,0.280,-0.685,4095,4095,4070,4095,5.493,8.331
737,0.000,-2.428,-1.000,-0.005,5.395,8.257,0.168,7.460,-1.176,0.000,5.328,8.477,0.290,0.000,0.000,0.000,0.000,6,0.281,-0.685,4095,4095,4069,4095,5.402,8.240
738,0.000,-2.428,-1.000,0.000,5.376,8.257,0.229,7.460,-1.176,0.000,5.223,8.518,0.320,0.000,0.000,0.000,0.000,6,0.281,-0.685,4095,4095,4069,4095,5.402,8.240
739,0.000,-2.428,-1.000,-0.005,5.477,8.307,0.259,7.460,-1.176,-0.027,5.276,8.563,0.290,0.000,0.000,0.000,0.000,6,0.281,-0.685,4095,4095,4067,4095,5.402,8.240
740,0.000,-2.406,-1.000,0.000,5.510,8.331,0.290,7.460,-1.176,0.000,5.333,8.539,0.412,0.000,0.000,0.000,0.000,6,0.280,-0.685,4095,4095,4070,4095,5.310,8.240
741,0.000,-2.406,-1.000,0.005,5.439,8.276,0.565,7.460,-1.176,0.000,5.266,8.534,0.473,0.000,0.000,0.000,0.000,6,0.281,-0.685,4095,4095,4070,4095,5.310,8.240
742,0.000,-2.406,-1.000,0.000,5.417,8.261,0.504,7.460,-1.176,-0.005,5.266,8.498,0.351,0.000,0.000,0.000,0.000,6,0.280,-0.684,4095,4095,4066,4095,5.402,8.240
743,0.000,-2.384,-1.000,0.000,5.395,8.278,0.290,7.460,-1.176,0.000,5.309,8.474,0.320,0.000,0.000,0.000,0.000,6,0.281,-0.685,4095,4095,4067,4095,5.493,8.331
744,0.000,-2.384,-1.000,0.000,5.395,8.295,0.320,7.460,-1.176,0.005,5.312,8.501,0.412,0.000,0.000,0.000,0.000,6,0.281,-0.685,4095,4095,4066,4095,5.402,8.240
745,0.000,-2.384,-1.000,0.000,5.383,8.280,0.381,7.460,-1.176,0.005,5.247,8.506,0.412,0.000,0.000,0.000,0.000,6,0.280,-0.685,4095,4095,4068,4095,5.402,8.240
746,0.000,-2.384,-1.000,0.000,5.424,8.321,0.290,7.460,-1.176,-0.005,5.221,8.534,0.351,0.000,0.000,0.000,0.000,6,0.280,-0.685,4095,4095,4072,4095,5.310,8.240
747,0.000,-2.384,-1.000,0.000,5.429,8.302,0.320,7.438,-1.176,0.000,5.228,8.529,0.412,0.000,0.000,0.000,0.000,6,0.280,-0.685,4095,4095,4071,4095,5.310,8.240
748,0.000,-2.384,-1.000,0.000,5.403,8.209,0.290,7.438,-1.176,0.005,5.319,8.532,0.290,0.000,0.000,0.000,0.000,6,0.281,-0.685,4095,4095,4070,4095,5.310,8.240
749,0.000,-2.362,-1.000,-0.005,5.467,8.230,0.351,7.438,-1.176,0.000,5.300,8.510,0.168,0.000,0.000,0.000,0.000,6,0.281,-0.685,4095,4095,4067,4095,5.402,8.240
750,0.000,-2.362,-1.000,0.000,5.513,8.242,0.381,7.438,-1.176,0.000,5.245,8.527,0.198,0.000,0.000,0.000,0.000,6,0.281,-0.685,4095,4095,4065,4095,5.402,8.240
751,0.000,-2.340,-1.000,0.005,5.391,8.249,0.168,7.438,-1.176,0.000,5.223,8.575,0.198,0.000,0.000,0.000,0.000,6,0.280,-0.685,4095,4095,4065,4095,5.402,8.148
752,0.000,-2.340,-1.000,0.000,5.381,8.273,0.229,7.438,-1.176,0.000,5.288,8.522,0.198,0.000,0.000,0.000,0.000,6,0.280,-0.685,4095,4095,4069,4095,5.402,8.148
753,0.000,-2.340,-1.000,-0.005,5.446,8.247,0.320,7.438,-1.176,0.000,5.319,8.486,0.259,0.000,0.000,0.000,0.000,6,0.281,-0.685,4095,4095,4071,4095,5.493,8.240
754,0.000,-2.340,-1.000,0.016,5.367,8.209,0.351,7.416,-1.176,0.005,5.185,8.532,0.412,0.000,0.000,0.000,0.000,6,0.281,-0.684,4095,4095,4071,4095,5.310,8.240
755,0.000,-2.340,-1.000,0.000,5.419,8.235,0.320,7.416,-1.176,-0.016,5.168,8.556,0.229,0.000,0.000,0.000,0.000,6,0.281,-0.685,4095,4095,4074,4095,5.310,8.240
756,0.000,-2.318,-1.000,0.005,5.446,8.297,0.259,7.416,-1.176,-0.016,5.295,8.522,0.107,0.000,0.000,0.000,0.000,6,0.280,-0.685,4095,4095,4071,4095,5.402,8.240
757,0.000,-2.318,-0.978,0.016,5.360,8.261,0.290,7.416,-1.176,-0.005,5.328,8.537,0.015,0.000,0.000,0.000,0.000,6,0.280,-0.685,4095,4095,4069,4095,5.402,8.148
758,0.000,-2.318,-0.978,-0.005,5.443,8.273,0.229,7.416,-1.176,0.005,5.312,8.556,0.290,0.000,0.000,0.000,0.000,6,0.281,-0.685,4095,4095,4066,4095,5.402,8.148
759,0.000,-2.318,-0.978,0.000,5.350,8.261,0.046,7.416,-1.176,0.005,5.280,8.570,0.443,0.000,0.000,0.000,0.000,6,0.281,-0.685,4095,4095,4067,4095,5.402,8.240
760,0.000,-2.318,-0.978,0.016,5.379,8.309,0.168,7.416,-1.176,0.000,5.276,8.551,0.351,0.000,0.000,0.000,0.000,6,0.282,-0.685,4095,4095,4069,4095,5.310,8.240
761,0.000,-2.318,-0.978,-0.016,5.352,8.290,0.259,7.416,-1.176,0.000,5.290,8.486,0.290,0.000,0.000,0.000,0.000,6,0.282,-0.685,4095,4095,4073,4095,5.310,8.240
762,0.000,-2.318,-0.978,-0.005,5.422,8.247,0.168,7.416,-1.176,0.000,5.261,8.484,0.259,0.000,0.000,0.000,0.000,6,0.282,-0.684,4095,4095,4074,4095,5.310,8.240
763,0.000,-2.318,-0.978,0.000,5.460,8.237,0.168,7.416,-1.176,0.005,5.261,8.489,0.000,0.000,0.000,0.000,0.000,6,0.281,-0.684,4095,4095,4073,4095,5.310,8.240
764,0.000,-2.318,-0.978,0.016,5.403,8.245,0.168,7.416,-1.176,-0.005,5.264,8.467,0.046,0.000,0.000,0.000,0.000,6,0.281,-0.685,4095,4095,4072,4095,5.310,8.240
765,0.000,-2.296,-0.978,-0.005,5.381,8.204,0.107,7.416,-1.176,0.000,5.235,8.460,0.168,0.000,0.000,0.000,0.000,6,0.281,-0.684,4095,4095,4068,4095,5.402,8.240
766,0.000,-2.296,-0.978,0.005,5.357,8.213,0.137,7.416,-1.176,0.005,5.249,8.491,0.076,0.000,0.000,0.000,0.000,6,0.281,-0.684,4095,4095,4067,4095,5.402,8.148
767,0.000,-2.296,-0.978,-0.005,5.422,8.254,0.137,7.416,-1.176,0.016,5.278,8.484,-0.046,0.000,0.000,0.000,0.000,6,0.281,-0.684,4095,4095,4068,4095,5.402,8.240
768,0.000,-2.296,-0.978,0.005,5.484,8.257,0.137,7.416,-1.176,0.000,5.249,8.467,0.000,0.000,0.000,0.000,0.000,6,0.281,-0.684,4095,4095,4070,4095,5.310,8.148
769,0.000,-2.296,-0.978,-0.016,5.357,8.269,0.168,7.416,-1.176,0.005,5.218,8.458,0.137,0.000,0.000,0.000,0.000,6,0.280,-0.684,4095,4095,4073,4095,5.310,8.148
770,0.000,-2.296,-0.978,0.005,5.345,8.261,0.076,7.394,-1.176,0.005,5.201,8.520,0.076,0.000,0.000,0.000,0.000,6,0.281,-0.685,4095,4095,4074,4095,5.402,8.240
771,0.000,-2.296,-0.978,0.000,5.441,8.254,0.000,7.394,-1.176,-0.005,5.225,8.527,0.000,0.000,0.000,0.000,0.000,6,0.281,-0.683,4095,4095,4073,4095,5.310,8.240
772,0.000,-2.274,-0.978,-0.005,5.350,8.259,-0.107,7.394,-1.176,0.005,5.204,8.496,-0.015,0.000,0.000,0.000,0.000,6,0.281,-0.684,4095,4095,4072,4095,5.310,8.240
773,0.000,-2.296,-0.978,0.000,5.326,8.252,-0.198,7.394,-1.176,-0.005,5.271,8.479,-0.076,0.000,0.000,0.000,0.000,6,0.281,-0.684,4095,4095,4068,4095,5.310,8.240
774,0.000,-2.296,-0.978,0.005,5.386,8.252,-0.107,7.394,-1.176,-0.005,5.290,8.448,-0.229,0.000,0.000,0.000,0.000,6,0.281,-0.684,4095,4095,4068,4095,5.402,8.240
775,0.000,-2.296,-0.978,-0.005,5.276,8.233,0.000,7.394,-1.176,0.016,5.240,8.462,-0.259,0.000,0.000,0.000,0.000,6,0.280,-0.684,4095,4095,4070,4095,5.310,8.240
776,0.000,-2.296,-0.978,-0.005,5.407,8.285,-0.076,7.394,-1.176,0.000,5.257,8.479,-0.168,0.000,0.000,0.000,0.000,6,0.280,-0.684,4095,4095,4071,4095,5.310,8.240
777,0.000,-2.296,-0.978,0.000,5.477,8.295,0.000,7.394,-1.176,0.000,5.261,8.474,-0.198,0.000,0.000,0.000,0.000,6,0.281,-0.684,4095,4095,4074,4095,5.310,8.240
778,0.000,-2.296,-0.978,-0.005,5.388,8.288,-0.168,7.394,-1.176,-0.016,5.300,8.474,-0.076,0.000,0.000,0.000,0.000,6,0.281,-0.684,4095,4095,4074,4095,5.219,8.148
779,0.000,-2.274,-0.956,0.005,5.436,8.288,-0.198,7.394,-1.176,0.005,5.240,8.479,0.000,0.000,0.000,0.000,0.000,6,0.280,-0.684,4095,4095,4073,4095,5.402,8.240
780,0.000,-2.274,-0.956,0.000,5.419,8.280,-0.137,7.394,-1.176,0.005,5.245,8.429,-0.198,0.000,0.000,0.000,0.000,6,0.280,-0.684,4095,4095,4075,4095,5.402,8.240
781,0.000,-2.274,-0.956,0.016,5.419,8.297,-0.107,7.394,-1.176,0.000,5.319,8.412,-0.229,0.000,0.000,0.000,0.000,6,0.280,-0.683,4095,4095,4076,4095,5.310,8.240
782,0.000,-2.274,-0.956,-0.016,5.422,8.307,-0.076,7.416,-1.176,0.005,5.240,8.438,-0.259,0.000,0.000,0.000,0.000,6,0.281,-0.684,4095,4095,4074,4095,5.402,8.240
783,0.000,-2.274,-0.956,0.000,5.367,8.300,-0.076,7.416,-1.176,-0.016,5.223,8.429,-0.229,0.000,0.000,0.000,0.000,6,0.281,-0.684,4095,4095,4068,4095,5.402,8.240
784,0.000,-2.274,-0.956,0.000,5.362,8.288,-0.198,7.416,-1.176,0.000,5.276,8.407,-0.137,0.000,0.000,0.000,0.000,6,0.280,-0.684,4095,4095,4070,4095,5.402,8.240
785,0.000,-2.274,-0.956,-0.005,5.439,8.345,-0.137,7.416,-1.176,-0.005,5.261,8.446,-0.290,0.000,0.000,0.000,0.000,6,0.280,-0.684,4095,4095,4070,4095,5.402,8.240
786,0.000,-2.274,-0.956,-0.005,5.427,8.367,-0.137,7.416,-1.176,0.000,5.218,8.453,-0.381,0.000,0.000,0.000,0.000,6,0.280,-0.684,4095,4095,4071,4095,5.310,8.240
787,0.000,-2.296,-0.956,0.000,5.324,8.319,-0.046,7.416,-1.176,0.000,5.137,8.448,-0.320,0.000,0.000,0.000,0.000,6,0.281,-0.684,4095,4095,4075,4095,5.310,8.240
788,0.000,-2.296,-0.956,0.000,5.376,8.295,0.000,7.394,-1.176,0.000,5.182,8.417,-0.381,0.000,0.000,0.000,0.000,6,0.281,-0.684,4095,4095,4075,4095,5.402,8.331
789,0.000,-2.296,-0.956,0.000,5.486,8.340,-0.046,7.394,-1.176,0.000,5.259,8.386,-0.320,0.000,0.000,0.000,0.000,6,0.280,-0.684,4095,4095,4075,4095,5.402,8.331
790,0.000,-2.274,-0.956,0.000,5.446,8.383,-0.168,7.416,-1.176,0.000,5.211,8.403,-0.259,0.000,0.000,0.000,0.000,6,0.280,-0.684,4095,4095,4073,4095,5.310,8.240
791,0.000,-2.296,-0.956,0.000,5.383,8.393,-0.198,7.394,-1.176,-0.016,5.166,8.441,-0.320,0.000,0.000,0.000,0.000,6,0.280,-0.684,4095,4095,4072,4095,5.310,8.240
792,0.000,-2.296,-0.956,0.000,5.319,8.338,-0.351,7.394,-1.176,-0.005,5.235,8.436,-0.259,0.000,0.000,0.000,0.000,6,0.281,-0.684,4095,4095,4072,4095,5.402,8.331
793,0.000,-2.296,-0.956,-0.005,5.371,8.352,-0.076,7.394,-1.176,0.005,5.257,8.405,-0.137,0.000,0.000,0.000,0.000,6,0.281,-0.684,4095,4095,4071,4095,5.402,8.331
794,0.000,-2.318,-0.956,0.000,5.407,8.367,-0.107,7.416,-1.176,0.005,5.223,8.376,-0.168,0.000,0.000,0.000,0.000,6,0.280,-0.684,4095,4095,4073,4095,5.310,8.331
795,0.000,-2.318,-0.956,-0.005,5.386,8.333,-0.046,7.416,-1.176,0.000,5.209,8.405,-0.229,0.000,0.000,0.000,0.000,6,0.280,-0.684,4095,4095,4077,4095,5.310,8.331
796,0.000,-2.318,-0.956,0.000,5.450,8.383,-0.015,7.416,-1.176,-0.005,5.230,8.436,-0.290,0.000,0.000,0.000,0.000,6,0.280,-0.684,4095,4095,4077,4095,5.310,8.331
797,0.000,-2.318,-0.956,0.000,5.348,8.355,-0.198,7.416,-1.176,0.000,5.190,8.441,-0.229,0.000,0.000,0.000,0.000,6,0.281,-0.684,4095,4095,4076,4095,5.402,8.331
798,0.000,-2.318,-0.956,0.005,5.450,8.367,-0.137,7.416,-1.176,0.000,5.264,8.388,-0.229,0.000,0.000,0.000,0.000,6,0.281,-0.685,4095,4095,4074,4095,5.310,8.331
799,0.000,-2.318,-0.956,0.000,5.453,8.386,0.000,7.416,-1.176,0.000,5.283,8.340,-0.229,0.000,0.000,0.000,0.000,6,0.281,-0.684,4095,4095,4071,4095,5.402,8.331
800,0.000,-2.318,-0.956,0.005,5.398,8.417,-0.046,7.416,-1.176,0.000,5.211,8.393,-0.290,0.000,0.000,0.000,0.000,6,0.282,-0.684,4095,4095,4071,4095,5.310,8.331
801,0.000,-2.318,-0.956,0.000,5.391,8.403,-0.015,7.416,-1.176,0.005,5.206,8.450,-0.412,0.000,0.000,0.000,0.000,6,0.282,-0.684,4095,4095,4073,4095,5.402,8.331
802,0.000,-2.340,-0.956,0.005,5.381,8.362,-0.015,7.416,-1.176,0.005,5.261,8.424,-0.443,0.000,0.000,0.000,0.000,6,0.281,-0.684,4095,4095,4076,4095,5.402,8.331
803,0.000,-2.340,-0.956,0.000,5.458,8.376,-0.076,7.438,-1.176,-0.005,5.352,8.388,-0.351,0.000,0.000,0.000,0.000,6,0.281,-0.684,4095,4095,4078,4095,5.310,8.331
804,0.000,-2.340,-0.956,-0.005,5.388,8.371,-0.137,7.438,-1.176,0.000,5.307,8.407,-0.290,0.000,0.000,0.000,0.000,6,0.281,-0.684,4095,4095,4079,4095,5.310,8.331
805,0.000,-2.340,-0.956,-0.005,5.395,8.398,-0.076,7.438,-1.176,0.000,5.245,8.417,-0.259,0.000,0.000,0.000,0.000,6,0.281,-0.684,4095,4095,4077,4095,5.310,8.331
806,0.000,-2.340,-0.956,0.000,5.503,8.376,0.015,7.438,-1.176,0.000,5.254,8.398,-0.290,0.000,0.000,0.000,0.000,6,0.281,-0.684,4095,4095,4075,4095,5.402,8.331
807,0.000,-2.340,-0.956,0.005,5.391,8.340,0.076,7.460,-1.176,0.000,5.209,8.405,-0.259,0.000,0.000,0.000,0.000,6,0.281,-0.684,4095,4095,4073,4095,5.310,8.331
808,0.000,-2.340,-0.956,0.005,5.352,8.350,0.046,7.438,-1.176,0.000,5.185,8.417,-0.198,0.000,0.000,0.000,0.000,6,0.280,-0.684,4095,4095,4073,4095,5.310,8.331
809,0.000,-2.340,-0.956,0.000,5.484,8.400,0.168,7.438,-1.176,-0.005,5.240,8.419,-0.320,0.000,0.000,0.000,0.000,6,0.281,-0.684,4095,4095,4075,4095,5.493,8.331
810,0.000,-2.340,-0.956,0.000,5.431,8.422,0.290,7.460,-1.176,0.005,5.245,8.460,-0.198,0.000,0.000,0.000,0.000,6,0.281,-0.683,4095,4095,4078,4095,5.310,8.331
811,0.000,-2.340,-0.956,-0.016,5.352,8.371,0.000,7.460,-1.176,0.000,5.271,8.450,-0.168,0.000,0.000,0.000,0.000,6,0.281,-0.683,4095,4095,4079,4095,5.310,8.331
812,0.000,-2.362,-0.956,-0.005,5.422,8.364,-0.229,7.460,-1.176,0.000,5.297,8.419,-0.198,0.000,0.000,0.000,0.000,6,0.282,-0.683,4095,4095,4078,4095,5.402,8.331
813,0.000,-2.362,-0.956,-0.005,5.448,8.388,0.000,7.460,-1.176,0.000,5.249,8.400,-0.198,0.000,0.000,0.000,0.000,6,0.280,-0.684,4095,4095,4078,4095,5.402,8.331
814,0.000,-2.362,-0.956,-0.005,5.395,8.369,0.168,7.460,-1.176,0.000,5.211,8.431,-0.320,0.000,0.000,0.000,0.000,6,0.280,-0.684,4095,4095,4075,4095,5.310,8.331
815,0.000,-2.362,-0.956,0.005,5.395,8.374,0.259,7.460,-1.176,0.005,5.161,8.453,-0.259,0.000,0.000,0.000,0.000,6,0.281,-0.683,4095,4095,4073,4095,5.402,8.331
816,0.000,-2.362,-0.956,0.000,5.412,8.340,0.320,7.438,-1.176,-0.005,5.144,8.450,-0.229,0.000,0.000,0.000,0.000,6,0.281,-0.683,4095,4095,4074,4095,5.402,8.331
817,0.000,-2.362,-0.956,0.000,5.417,8.359,0.168,7.438,-1.176,0.005,5.235,8.441,-0.137,0.000,0.000,0.000,0.000,6,0.281,-0.683,4095,4095,4075,4095,5.310,8.331
818,0.000,-2.362,-0.956,-0.005,5.405,8.419,0.046,7.438,-1.154,0.000,5.314,8.403,-0.229,0.000,0.000,0.000,0.000,6,0.281,-0.683,4095,4095,4073,4095,5.310,8.331
819,0.000,-2.362,-0.956,0.000,5.403,8.400,0.107,7.460,-1.154,0.000,5.300,8.407,-0.381,0.000,0.000,0.000,0.000,6,0.280,-0.683,4095,4095,4075,4095,5.402,8.331
820,0.000,-2.362,-0.956,0.000,5.376,8.369,0.107,7.460,-1.154,0.000,5.257,8.412,-0.381,0.000,0.000,0.000,0.000,6,0.280,-0.683,4095,4095,4079,4095,5.402,8.331
821,0.000,-2.384,-0.956,0.000,5.326,8.302,0.107,7.460,-1.154,0.000,5.278,8.412,-0.381,0.000,0.000,0.000,0.000,6,0.281,-0.683,4095,4095,4081,4095,5.402,8.331
822,0.000,-2.384,-0.956,0.000,5.403,8.319,0.107,7.460,-1.154,0.000,5.285,8.412,-0.290,0.000,0.000,0.000,0.000,6,0.281,-0.683,4095,4095,4080,4095,5.402,8.331
823,0.000,-2.384,-0.956,0.000,5.422,8.343,0.137,7.482,-1.154,0.005,5.261,8.405,-0.412,0.000,0.000,0.000,0.000,6,0.281,-0.683,4095,4095,4080,4095,5.310,8.331
824,0.000,-2.384,-0.956,0.000,5.410,8.338,0.229,7.482,-1.154,0.000,5.261,8.398,-0.412,0.000,0.000,0.000,0.000,6,0.281,-0.683,4095,4095,4077,4095,5.310,8.240
825,0.000,-2.384,-0.956,0.000,5.407,8.352,0.259,7.482,-1.154,-0.027,5.288,8.410,-0.320,0.000,0.000,0.000,0.000,6,0.280,-0.683,4095,4095,4074,4095,5.402,8.240
826,0.000,-2.384,-0.956,0.005,5.314,8.314,0.259,7.482,-1.154,0.000,5.285,8.441,-0.259,0.000,0.000,0.000,0.000,6,0.281,-0.683,4095,4095,4075,4095,5.402,8.331
827,0.000,-2.384,-0.956,0.000,5.367,8.348,0.137,7.482,-1.154,0.000,5.280,8.448,-0.168,0.000,0.000,0.000,0.000,6,0.281,-0.683,4095,4095,4076,4095,5.402,8.331
828,0.000,-2.384,-0.934,-0.005,5.360,8.362,0.137,7.504,-1.154,0.000,5.307,8.415,-0.229,0.000,0.000,0.000,0.000,6,0.280,-0.683,4095,4095,4081,4095,5.402,8.331
829,0.000,-2.406,-0.934,-0.005,5.309,8.357,0.137,7.504,-1.154,0.000,5.297,8.403,-0.229,0.000,0.000,0.000,0.000,6,0.281,-0.683,4095,4095,4081,4095,5.310,8.240
830,0.000,-2.406,-0.934,0.005,5.355,8.364,0.229,7.504,-1.154,0.000,5.340,8.405,-0.229,0.000,0.000,0.000,0.000,6,0.280,-0.683,4095,4095,4083,4095,5.310,8.331
831,0.000,-2.406,-0.934,0.005,5.352,8.348,0.229,7.526,-1.154,0.016,5.336,8.381,-0.107,0.000,0.000,0.000,0.000,6,0.281,-0.683,4095,4095,4082,4095,5.310,8.331
832,0.000,-2.406,-0.934,0.000,5.412,8.362,0.320,7.526,-1.154,0.000,5.319,8.395,-0.107,0.000,0.000,0.000,0.000,6,0.281,-0.683,4095,4095,4077,4095,5.310,8.331
833,0.000,-2.406,-0.934,0.005,5.441,8.350,0.107,7.548,-1.154,0.000,5.288,8.427,-0.229,0.000,0.000,0.000,0.000,6,0.281,-0.683,4095,4095,4077,4095,5.310,8.331
834,0.000,-2.406,-0.934,0.000,5.307,8.304,0.046,7.548,-1.154,0.005,5.328,8.422,-0.320,0.000,0.000,0.000,0.000,6,0.280,-0.683,4095,4095,4077,4095,5.310,8.331
835,0.000,-2.406,-0.934,-0.005,5.450,8.362,0.198,7.548,-1.154,-0.005,5.362,8.407,-0.198,0.000,0.000,0.000,0.000,6,0.281,-0.683,4095,4095,4079,4095,5.402,8.331
836,0.000,-2.428,-0.934,0.005,5.333,8.338,0.259,7.570,-1.154,0.000,5.307,8.453,-0.229,0.000,0.000,0.000,0.000,6,0.281,-0.683,4095,4095,4083,4095,5.402,8.331
837,0.000,-2.428,-0.934,0.000,5.324,8.324,0.290,7.570,-1.154,0.000,5.278,8.479,-0.198,0.000,0.000,0.000,0.000,6,0.281,-0.684,4095,4095,4084,4095,5.219,8.240
838,0.000,-2.428,-0.934,0.000,5.364,8.333,0.412,7.570,-1.154,0.005,5.254,8.474,-0.351,0.000,0.000,0.000,0.000,6,0.282,-0.683,4095,4095,4083,4095,5.402,8.331
839,0.000,-2.428,-0.934,0.016,5.300,8.333,0.290,7.570,-1.154,0.000,5.307,8.438,-0.259,0.000,0.000,0.000,0.000,6,0.282,-0.683,4095,4095,4079,4095,5.310,8.331
840,0.000,-2.428,-0.934,0.000,5.386,8.357,0.198,7.570,-1.154,-0.005,5.376,8.381,-0.168,0.000,0.000,0.000,0.000,6,0.282,-0.683,4095,4095,4076,4095,5.310,8.240
841,0.000,-2.450,-0.934,-0.005,5.405,8.326,0.290,7.592,-1.154,0.005,5.343,8.393,-0.229,0.000,0.000,0.000,0.000,6,0.281,-0.683,4095,4095,4077,4095,5.310,8.331
842,0.000,-2.428,-0.934,0.000,5.312,8.273,0.320,7.592,-1.154,0.000,5.257,8.450,-0.229,0.000,0.000,0.000,0.000,6,0.281,-0.683,4095,4095,4079,4095,5.219,8.331
843,0.000,-2.450,-0.934,0.016,5.288,8.273,0.351,7.592,-1.154,0.000,5.297,8.443,-0.198,0.000,0.000,0.000,0.000,6,0.281,-0.683,4095,4095,4079,4095,5.310,8.331
844,0.000,-2.450,-0.934,0.005,5.316,8.278,0.320,7.592,-1.154,0.000,5.360,8.391,-0.168,0.000,0.000,0.000,0.000,6,0.281,-0.683,4095,4095,4082,4095,5.402,8.240
845,0.000,-2.450,-0.934,0.000,5.395,8.297,0.290,7.614,-1.154,-0.005,5.336,8.376,-0.137,0.000,0.000,0.000,0.000,6,0.281,-0.683,4095,4095,4083,4095,5.310,8.240
846,0.000,-2.450,-0.934,0.000,5.381,8.307,0.229,7.614,-1.154,0.000,5.312,8.403,-0.198,0.000,0.000,0.000,0.000,6,0.281,-0.683,4095,4095,4083,4095,5.219,8.240
847,0.000,-2.450,-0.934,0.000,5.307,8.283,0.076,7.614,-1.154,-0.005,5.328,8.472,-0.168,0.000,0.000,0.000,0.000,6,0.280,-0.683,4095,4095,4079,4095,5.310,8.240
848,0.000,-2.450,-0.934,0.000,5.328,8.261,0.015,7.614,-1.154,0.005,5.369,8.477,-0.198,0.000,0.000,0.000,0.000,6,0.280,-0.683,4095,4095,4078,4095,5.310,8.240
849,0.000,-2.450,-0.934,-0.005,5.410,8.290,0.229,7.636,-1.154,-0.005,5.374,8.419,-0.259,0.000,0.000,0.000,0.000,6,0.281,-0.682,4095,4095,4078,4095,5.310,8.240
850,0.000,-2.450,-0.934,0.005,5.381,8.302,0.320,7.636,-1.154,-0.005,5.352,8.434,-0.198,0.000,0.000,0.000,0.000,6,0.281,-0.683,4095,4095,4079,4095,5.219,8.240
851,0.000,-2.450,-0.934,0.000,5.338,8.324,0.351,7.658,-1.154,0.000,5.443,8.460,-0.229,0.000,0.000,0.000,0.000,6,0.281,-0.683,4095,4095,4082,4095,5.310,8.240
852,0.000,-2.450,-0.934,0.005,5.316,8.269,0.259,7.658,-1.154,-0.005,5.407,8.446,-0.198,0.000,0.000,0.000,0.000,6,0.281,-0.683,4095,4095,4083,4095,5.402,8.240
853,0.000,-2.450,-0.934,0.005,5.304,8.206,0.137,7.680,-1.154,0.005,5.371,8.429,-0.168,0.000,0.000,0.000,0.000,6,0.281,-0.683,4095,4095,4084,4095,5.310,8.240
854,0.000,-2.450,-0.934,-0.005,5.374,8.273,0.015,7.680,-1.154,0.000,5.405,8.395,-0.076,0.000,0.000,0.000,0.000,6,0.281,-0.682,4095,4095,4083,4095,5.310,8.240
855,0.000,-2.450,-0.934,0.000,5.364,8.297,0.046,7.702,-1.154,0.005,5.357,8.403,-0.046,0.000,0.000,0.000,0.000,6,0.281,-0.682,4095,4095,4079,4095,5.310,8.240
856,0.000,-2.450,-0.934,0.000,5.319,8.266,0.015,7.702,-1.154,-0.005,5.348,8.446,-0.107,0.000,0.000,0.000,0.000,6,0.281,-0.683,4095,4095,4078,4095,5.219,8.148
857,0.000,-2.450,-0.934,-0.005,5.360,8.254,-0.046,7.702,-1.154,0.005,5.331,8.436,-0.137,0.000,0.000,0.000,0.000,6,0.281,-0.683,4095,4095,4081,4095,5.310,8.240
858,0.000,-2.450,-0.934,0.000,5.383,8.300,0.107,7.724,-1.154,0.005,5.398,8.441,0.000,0.000,0.000,0.000,0.000,6,0.281,-0.683,4095,4095,4079,4095,5.310,8.240
859,0.000,-2.450,-0.934,0.005,5.364,8.333,0.137,7.724,-1.154,0.016,5.407,8.472,0.046,0.000,0.000,0.000,0.000,6,0.280,-0.681,4095,4095,4080,4095,5.310,8.240
860,0.000,-2.450,-0.934,0.005,5.319,8.309,0.076,7.724,-1.154,0.000,5.386,8.474,-0.076,0.000,0.000,0.000,0.000,6,0.281,-0.683,4095,4095,4081,4095,5.310,8.240
861,0.000,-2.450,-0.934,0.005,5.283,8.292,0.198,7.745,-1.154,0.000,5.424,8.441,-0.229,0.000,0.000,0.000,0.000,6,0.281,-0.682,4095,4095,4083,4095,5.310,8.331
862,0.000,-2.450,-0.934,-0.005,5.326,8.295,0.198,7.745,-1.154,0.000,5.393,8.436,-0.168,0.000,0.000,0.000,0.000,6,0.280,-0.683,4095,4095,4085,4095,5.310,8.331
863,0.000,-2.450,-0.934,0.000,5.333,8.280,0.229,7.745,-1.154,0.000,5.321,8.453,-0.107,0.000,0.000,0.000,0.000,6,0.281,-0.682,4095,4095,4084,4095,5.310,8.240
864,0.000,-2.472,-0.934,-0.005,5.285,8.269,0.107,7.745,-1.154,0.016,5.257,8.443,-0.046,0.000,0.000,0.000,0.000,6,0.280,-0.682,4095,4095,4084,4095,5.219,8.240
865,0.000,-2.472,-0.934,0.000,5.350,8.292,0.107,7.745,-1.154,0.000,5.345,8.465,-0.046,0.000,0.000,0.000,0.000,6,0.281,-0.683,4095,4095,4081,4095,5.310,8.240
866,0.000,-2.472,-0.934,0.005,5.336,8.300,0.000,7.767,-1.154,-0.005,5.407,8.472,-0.076,0.000,0.000,0.000,0.000,6,0.281,-0.682,4095,4095,4078,4095,5.310,8.240
867,0.000,-2.472,-0.912,-0.016,5.271,8.285,0.076,7.767,-1.154,-0.005,5.412,8.477,-0.168,0.000,0.000,0.000,0.000,6,0.281,-0.682,4095,4095,4078,4095,5.219,8.240
868,0.000,-2.472,-0.912,0.000,5.362,8.278,0.046,7.767,-1.154,0.000,5.362,8.515,-0.229,0.000,0.000,0.000,0.000,6,0.281,-0.683,4095,4095,4079,4095,5.310,8.240
869,0.000,-2.472,-0.912,0.000,5.376,8.297,0.076,7.767,-1.154,0.000,5.357,8.486,-0.290,0.000,0.000,0.000,0.000,6,0.281,-0.682,4095,4095,4085,4095,5.310,8.240
870,0.000,-2.472,-0.912,0.000,5.328,8.307,0.168,7.789,-1.154,0.000,5.405,8.441,-0.381,0.000,0.000,0.000,0.000,6,0.281,-0.682,4095,4095,4087,4095,5.219,8.240
871,0.000,-2.472,-0.912,0.000,5.309,8.273,0.168,7.789,-1.154,0.005,5.362,8.458,-0.381,0.000,0.000,0.000,0.000,6,0.281,-0.682,4095,4095,4085,4095,5.310,8.240
872,0.000,-2.472,-0.912,0.005,5.259,8.257,0.107,7.789,-1.154,0.000,5.350,8.498,-0.259,0.000,0.000,0.000,0.000,6,0.280,-0.682,4095,4095,4085,4095,5.310,8.240
873,0.000,-2.494,-0.912,0.000,5.273,8.343,0.046,7.789,-1.154,0.000,5.374,8.498,-0.137,0.000,0.000,0.000,0.000,6,0.280,-0.682,4095,4095,4081,4095,5.310,8.240
874,0.000,-2.494,-0.912,-0.005,5.254,8.304,0.000,7.789,-1.154,0.000,5.348,8.491,-0.229,0.000,0.000,0.000,0.000,6,0.280,-0.682,4095,4095,4079,4095,5.310,8.240
875,0.000,-2.494,-0.912,-0.005,5.364,8.338,-0.015,7.789,-1.154,-0.005,5.340,8.498,-0.443,0.000,0.000,0.000,0.000,6,0.281,-0.682,4095,4095,4079,4095,5.219,8.240
876,0.000,-2.494,-0.912,0.000,5.383,8.343,0.076,7.789,-1.154,0.000,5.312,8.484,-0.595,0.000,0.000,0.000,0.000,6,0.281,-0.683,4095,4095,4081,4095,5.219,8.331
877,0.000,-2.494,-0.912,0.005,5.336,8.302,0.076,7.789,-1.154,0.000,5.283,8.489,-0.595,0.000,0.000,0.000,0.000,6,0.281,-0.682,4095,4095,4084,4095,5.219,8.240
878,0.000,-2.494,-0.912,0.000,5.321,8.276,-0.015,7.789,-1.154,-0.005,5.324,8.472,-0.473,0.000,0.000,0.000,0.000,6,0.282,-0.682,4095,4095,4085,4095,5.310,8.331
879,0.000,-2.494,-0.912,0.005,5.309,8.280,-0.015,7.789,-1.154,0.000,5.348,8.472,-0.565,0.000,0.000,0.000,0.000,6,0.282,-0.682,4095,4095,4085,4095,5.310,8.331
880,0.000,-2.516,-0.912,0.005,5.245,8.307,0.000,7.789,-1.154,0.005,5.345,8.460,-0.473,0.000,0.000,0.000,0.000,6,0.281,-0.682,4095,4095,4083,4095,5.310,8.240
881,0.000,-2.516,-0.912,0.016,5.142,8.276,0.000,7.789,-1.154,0.000,5.348,8.474,-0.351,0.000,0.000,0.000,0.000,6,0.281,-0.682,4095,4095,4079,4095,5.310,8.240
882,0.000,-2.538,-0.912,0.005,5.163,8.292,-0.046,7.789,-1.154,0.005,5.391,8.484,-0.473,0.000,0.000,0.000,0.000,6,0.281,-0.682,4095,4095,4079,4095,5.310,8.240
883,0.000,-2.560,-0.912,0.005,5.245,8.285,-0.168,7.811,-1.154,-0.005,5.376,8.446,-0.687,0.000,0.000,0.000,0.000,6,0.281,-0.682,4095,4095,4079,4095,5.219,8.240
884,0.000,-2.560,-0.912,0.000,5.338,8.290,-0.229,7.811,-1.154,-0.005,5.312,8.410,-0.565,0.000,0.000,0.000,0.000,6,0.281,-0.682,4095,4095,4081,4095,5.127,8.240
885,0.000,-2.560,-0.912,-0.005,5.362,8.348,-0.229,7.811,-1.154,-0.005,5.288,8.407,-0.351,0.000,0.000,0.000,0.000,6,0.281,-0.682,4095,4095,4085,4095,5.127,8.240
886,0.000,-2.560,-0.912,-0.016,5.300,8.316,-0.168,7.811,-1.154,0.005,5.292,8.431,-0.443,0.000,0.000,0.000,0.000,6,0.280,-0.682,4095,4095,4085,4095,5.219,8.240
887,0.000,-2.560,-0.912,0.000,5.273,8.266,-0.198,7.811,-1.154,-0.005,5.302,8.453,-0.443,0.000,0.000,0.000,0.000,6,0.280,-0.682,4095,4095,4085,4095,5.310,8.240
888,0.000,-2.560,-0.912,0.000,5.245,8.261,-0.137,7.811,-1.154,0.005,5.360,8.472,-0.290,0.000,0.000,0.000,0.000,6,0.281,-0.681,4095,4095,4083,4095,5.310,8.331
889,0.000,-2.582,-0.912,-0.016,5.199,8.295,-0.198,7.811,-1.154,-0.005,5.379,8.453,-0.290,0.000,0.000,0.000,0.000,6,0.281,-0.682,4095,4095,4079,4095,5.219,8.240
890,0.000,-2.582,-0.912,0.000,5.190,8.300,-0.381,7.811,-1.154,0.005,5.333,8.434,-0.443,0.000,0.000,0.000,0.000,6,0.281,-0.682,4095,4095,4079,4095,5.219,8.240
891,0.000,-2.604,-0.912,-0.016,5.213,8.280,-0.259,7.811,-1.154,0.005,5.316,8.438,-0.320,0.000,0.000,0.000,0.000,6,0.281,-0.682,4095,4095,4079,4095,5.219,8.240
892,0.000,-2.604,-0.912,0.000,5.292,8.269,-0.137,7.811,-1.154,0.000,5.288,8.419,-0.229,0.000,0.000,0.000,0.000,6,0.281,-0.682,4095,4095,4082,4095,5.127,8.240
893,0.000,-2.604,-0.912,-0.005,5.328,8.278,-0.290,7.811,-1.154,-0.016,5.259,8.424,-0.351,0.000,0.000,0.000,0.000,6,0.281,-0.682,4095,4095,4085,4095,5.127,8.240
894,0.000,-2.604,-0.912,0.000,5.319,8.290,-0.320,7.811,-1.154,0.005,5.278,8.450,-0.473,0.000,0.000,0.000,0.000,6,0.281,-0.682,4095,4095,4085,4095,5.127,8.240
895,0.000,-2.604,-0.912,-0.016,5.336,8.307,-0.320,7.811,-1.154,0.000,5.295,8.424,-0.534,0.000,0.000,0.000,0.000,6,0.281,-0.682,4095,4095,4085,4095,5.219,8.240
896,0.000,-2.604,-0.912,0.005,5.307,8.343,-0.351,7.811,-1.154,0.000,5.345,8.403,-0.595,0.000,0.000,0.000,0.000,6,0.281,-0.682,4095,4095,4086,4095,5.310,8.240
897,0.000,-2.604,-0.912,0.000,5.194,8.307,-0.320,7.811,-1.154,0.016,5.336,8.424,-0.595,0.000,0.000,0.000,0.000,6,0.281,-0.682,4095,4095,4086,4095,5.310,8.240
898,0.000,-2.626,-0.912,-0.005,5.278,8.314,-0.259,7.811,-1.154,-0.005,5.319,8.412,-0.534,0.000,0.000,0.000,0.000,6,0.281,-0.681,4095,4095,4086,4095,5.310,8.240
899,0.000,-2.626,-0.912,0.005,5.338,8.304,-0.381,7.833,-1.154,0.005,5.398,8.374,-0.504,0.000,0.000,0.000,0.000,6,0.281,-0.682,4095,4095,4080,4095,5.219,8.331
900,0.000,-2.626,-0.912,0.005,5.316,8.312,-0.443,7.833,-1.154,0.000,5.376,8.388,-0.565,0.000,0.000,0.000,0.000,6,0.281,-0.682,4095,4095,4079,4095,5.127,8.240
901,0.000,-2.604,-0.890,0.016,5.364,8.333,-0.443,7.855,-1.154,0.005,5.338,8.400,-0.565,0.000,0.000,0.000,0.000,6,0.281,-0.681,4095,4095,4080,4095,5.310,8.240
902,0.000,-2.604,-0.890,0.005,5.345,8.338,-0.443,7.855,-1.154,0.000,5.321,8.388,-0.565,0.000,0.000,0.000,0.000,6,0.281,-0.682,4095,4095,4082,4095,5.310,8.240
903,0.000,-2.604,-0.890,0.000,5.290,8.314,-0.504,7.855,-1.154,-0.005,5.314,8.388,-0.534,0.000,0.000,0.000,0.000,6,0.281,-0.682,4095,4095,4083,4095,5.310,8.240
904,0.000,-2.626,-0.890,-0.005,5.180,8.264,-0.687,7.855,-1.154,0.005,5.292,8.369,-0.595,0.000,0.000,0.000,0.000,6,0.281,-0.682,4095,4095,4085,4095,5.310,8.331
905,0.000,-2.626,-0.890,0.000,5.235,8.307,-0.687,7.855,-1.154,-0.005,5.297,8.364,-0.595,0.000,0.000,0.000,0.000,6,0.281,-0.682,4095,4095,4084,4095,5.310,8.331
906,0.000,-2.626,-0.890,-0.005,5.264,8.302,-0.717,7.855,-1.154,0.000,5.316,8.395,-0.626,0.000,0.000,0.000,0.000,6,0.281,-0.682,4095,4095,4083,4095,5.219,8.240
907,0.000,-2.648,-0.890,-0.005,5.283,8.295,-0.687,7.855,-1.154,0.000,5.326,8.398,-0.748,0.000,0.000,0.000,0.000,6,0.281,-0.681,4095,4095,4079,4095,5.127,8.240
908,0.000,-2.648,-0.890,0.000,5.336,8.316,-0.656,7.877,-1.154,0.000,5.350,8.386,-0.656,0.000,0.000,0.000,0.000,6,0.281,-0.681,4095,4095,4082,4095,5.219,8.240
909,0.000,-2.648,-0.890,-0.005,5.292,8.326,-0.809,7.877,-1.154,0.000,5.381,8.374,-0.565,0.000,0.000,0.000,0.000,6,0.281,-0.682,4095,4095,4082,4095,5.219,8.240
910,0.000,-2.648,-0.890,0.000,5.216,8.307,-0.961,7.877,-1.154,-0.005,5.379,8.364,-0.656,0.000,0.000,0.000,0.000,6,0.281,-0.681,4095,4095,4084,4095,5.219,8.240
911,0.000,-2.648,-0.890,0.000,5.261,8.297,-1.022,7.899,-1.154,-0.005,5.355,8.352,-0.595,0.000,0.000,0.000,0.000,6,0.281,-0.681,4095,4095,4087,4095,5.219,8.240
912,0.000,-2.648,-0.890,0.000,5.292,8.324,-1.022,7.899,-1.154,0.005,5.374,8.300,-0.626,0.000,0.000,0.000,0.000,6,0.281,-0.681,4095,4095,4086,4095,5.219,8.240
913,0.000,-2.648,-0.890,0.005,5.292,8.343,-1.083,7.921,-1.154,-0.005,5.393,8.312,-0.717,0.000,0.000,0.000,0.000,6,0.281,-0.681,4095,4095,4086,4095,5.127,8.240
914,0.000,-2.670,-0.890,-0.016,5.276,8.328,-1.175,7.921,-1.154,0.000,5.405,8.338,-0.717,0.000,0.000,0.000,0.000,6,0.281,-0.681,4095,4095,4084,4095,5.219,8.240
915,0.000,-2.670,-0.890,0.027,5.240,8.345,-1.175,7.943,-1.154,0.000,5.374,8.321,-0.992,0.000,0.000,0.000,0.000,6,0.281,-0.682,4095,4095,4081,4095,5.219,8.240
916,0.000,-2.670,-0.890,-0.005,5.348,8.436,-1.114,7.965,-1.132,-0.005,5.333,8.316,-1.175,0.000,0.000,0.000,0.000,6,0.282,-0.681,4095,4095,4082,4095,5.219,8.331
917,0.000,-2.670,-0.890,0.000,5.388,8.419,-1.053,7.965,-1.132,0.005,5.376,8.295,-0.931,0.000,0.000,0.000,0.000,6,0.282,-0.681,4095,4095,4081,4095,5.219,8.240
918,0.000,-2.670,-0.890,0.000,5.288,8.355,-1.114,7.987,-1.132,0.000,5.412,8.295,-0.839,0.000,0.000,0.000,0.000,6,0.282,-0.681,4095,4095,4084,4095,5.219,8.331
919,0.000,-2.692,-0.890,0.005,5.280,8.419,-1.053,7.987,-1.132,0.000,5.343,8.331,-0.809,0.000,0.000,0.000,0.000,6,0.281,-0.681,4095,4095,4087,4095,5.310,8.423
920,0.000,-2.692,-0.890,-0.005,5.276,8.371,-1.022,8.009,-1.132,0.005,5.379,8.336,-0.778,0.000,0.000,0.000,0.000,6,0.281,-0.681,4095,4095,4086,4095,5.310,8.331
921,0.000,-2.692,-0.890,0.000,5.252,8.326,-1.083,8.009,-1.132,0.000,5.345,8.364,-0.839,0.000,0.000,0.000,0.000,6,0.281,-0.682,4095,4095,4086,4095,5.219,8.331
922,0.000,-2.692,-0.890,-0.005,5.264,8.355,-1.022,8.009,-1.132,-0.005,5.312,8.362,-0.961,0.000,0.000,0.000,0.000,6,0.281,-0.681,4095,4095,4082,4095,5.219,8.331
923,0.000,-2.692,-0.890,-0.005,5.326,8.379,-1.144,8.009,-1.132,-0.005,5.324,8.336,-1.022,0.000,0.000,0.000,0.000,6,0.281,-0.681,4095,4095,4081,4095,5.219,8.331
924,0.000,-2.714,-0.890,0.000,5.307,8.369,-1.083,8.009,-1.132,0.000,5.340,8.348,-0.992,0.000,0.000,0.000,0.000,6,0.281,-0.681,4095,4095,4082,4095,5.219,8.240
925,0.000,-2.714,-0.890,-0.016,5.324,8.340,-1.083,8.031,-1.132,0.000,5.383,8.355,-0.961,0.000,0.000,0.000,0.000,6,0.280,-0.681,4095,4095,4083,4095,5.219,8.331
926,0.000,-2.714,-0.890,0.000,5.362,8.362,-1.083,8.031,-1.132,0.000,5.417,8.336,-0.961,0.000,0.000,0.000,0.000,6,0.281,-0.681,4095,4095,4086,4095,5.310,8.331
927,0.000,-2.692,-0.890,-0.016,5.355,8.369,-0.961,8.053,-1.132,0.000,5.362,8.331,-1.083,0.000,0.000,0.000,0.000,6,0.281,-0.680,4095,4095,4087,4095,5.219,8.331
928,0.000,-2.692,-0.890,0.000,5.280,8.350,-1.053,8.053,-1.132,0.016,5.348,8.352,-1.144,0.000,0.000,0.000,0.000,6,0.281,-0.681,4095,4095,4087,4095,5.310,8.331
929,0.000,-2.714,-0.890,0.005,5.182,8.295,-1.053,8.053,-1.132,0.005,5.465,8.359,-1.144,0.000,0.000,0.000,0.000,6,0.281,-0.681,4095,4095,4085,4095,5.310,8.331
930,0.000,-2.714,-0.890,0.005,5.257,8.314,-1.083,8.075,-1.132,0.000,5.455,8.359,-1.144,0.000,0.000,0.000,0.000,6,0.281,-0.681,4095,4095,4081,4095,5.310,8.331
931,0.000,-2.714,-0.890,0.000,5.367,8.386,-1.175,8.097,-1.132,0.000,5.405,8.367,-0.992,0.000,0.000,0.000,0.000,6,0.281,-0.681,4095,4095,4081,4095,5.219,8.331
932,0.000,-2.714,-0.890,0.005,5.336,8.369,-1.144,8.097,-1.132,0.005,5.391,8.348,-0.900,0.000,0.000,0.000,0.000,6,0.280,-0.681,4095,4095,4081,4095,5.127,8.240
933,0.000,-2.714,-0.890,-0.005,5.324,8.345,-1.083,8.097,-1.132,0.000,5.379,8.359,-0.870,0.000,0.000,0.000,0.000,6,0.281,-0.681,4095,4095,4083,4095,5.219,8.240
934,0.000,-2.714,-0.890,0.005,5.400,8.357,-1.083,8.097,-1.132,0.000,5.333,8.367,-0.961,0.000,0.000,0.000,0.000,6,0.281,-0.681,4095,4095,4086,4095,5.310,8.331
935,0.000,-2.714,-0.890,-0.005,5.395,8.352,-1.022,8.097,-1.132,-0.005,5.314,8.374,-0.870,0.000,0.000,0.000,0.000,6,0.280,-0.681,4095,4095,4083,4095,5.310,8.331
936,0.000,-2.692,-0.890,-0.005,5.364,8.400,-0.931,8.097,-1.132,0.000,5.355,8.371,-0.870,0.000,0.000,0.000,0.000,6,0.281,-0.681,4095,4095,4085,4095,5.310,8.331
937,0.000,-2.714,-0.890,0.000,5.333,8.424,-0.992,8.119,-1.132,0.000,5.331,8.364,-1.083,0.000,0.000,0.000,0.000,6,0.281,-0.680,4095,4095,4088,4095,5.310,8.331
938,0.000,-2.714,-0.890,-0.005,5.257,8.367,-1.175,8.119,-1.132,-0.005,5.357,8.422,-0.900,0.000,0.000,0.000,0.000,6,0.280,-0.681,4095,4095,4087,4095,5.310,8.331
939,0.000,-2.714,-0.890,0.000,5.271,8.379,-1.022,8.119,-1.132,0.005,5.436,8.412,-0.961,0.000,0.000,0.000,0.000,6,0.281,-0.681,4095,4095,4085,4095,5.310,8.331
940,0.000,-2.714,-0.890,0.000,5.403,8.424,-0.900,8.119,-1.132,0.000,5.431,8.391,-1.144,0.000,0.000,0.000,0.000,6,0.281,-0.681,4095,4095,4083,4095,5.310,8.423
941,0.000,-2.714,-0.890,0.000,5.369,8.398,-0.931,8.119,-1.132,0.000,5.374,8.422,-1.144,0.000,0.000,0.000,0.000,6,0.281,-0.681,4095,4095,4081,4095,5.219,8.331
942,0.000,-2.714,-0.890,0.016,5.333,8.381,-0.809,8.141,-1.132,0.000,5.374,8.412,-0.961,0.000,0.000,0.000,0.000,6,0.281,-0.681,4095,4095,4080,4095,5.219,8.331
943,0.000,-2.714,-0.890,0.005,5.448,8.434,-0.748,8.141,-1.132,0.000,5.403,8.386,-0.778,0.000,0.000,0.000,0.000,6,0.281,-0.681,4095,4095,4082,4095,5.402,8.423
944,0.000,-2.714,-0.890,0.000,5.412,8.403,-0.839,8.141,-1.132,0.016,5.410,8.386,-0.839,0.000,0.000,0.000,0.000,6,0.281,-0.681,4095,4095,4085,4095,5.310,8.331
945,0.000,-2.714,-0.890,0.000,5.292,8.355,-0.870,8.141,-1.132,0.000,5.422,8.398,-0.900,0.000,0.000,0.000,0.000,6,0.281,-0.681,4095,4095,4087,4095,5.310,8.331
946,0.000,-2.714,-0.890,-0.016,5.316,8.362,-0.839,8.163,-1.132,0.005,5.441,8.393,-0.870,0.000,0.000,0.000,0.000,6,0.281,-0.681,4095,4095,4087,4095,5.402,8.423
947,0.000,-2.714,-0.890,-0.005,5.352,8.324,-0.748,8.163,-1.132,0.000,5.448,8.417,-0.900,0.000,0.000,0.000,0.000,6,0.281,-0.681,4095,4095,4087,4095,5.402,8.331
948,0.000,-2.692,-0.890,0.000,5.357,8.321,-0.778,8.163,-1.132,0.000,5.429,8.429,-0.778,0.000,0.000,0.000,0.000,6,0.281,-0.681,4095,4095,4084,4095,5.219,8.331
949,0.000,-2.692,-0.890,0.005,5.415,8.383,-0.839,8.185,-1.132,0.000,5.462,8.407,-0.778,0.000,0.000,0.000,0.000,6,0.281,-0.680,4095,4095,4083,4095,5.310,8.331
950,0.000,-2.692,-0.890,0.000,5.393,8.417,-0.687,8.185,-1.132,0.000,5.441,8.429,-0.809,0.000,0.000,0.000,0.000,6,0.281,-0.681,4095,4095,4083,4095,5.310,8.240
951,0.000,-2.692,-0.890,-0.005,5.412,8.419,-0.534,8.185,-1.132,0.000,5.374,8.431,-0.748,0.000,0.000,0.000,0.000,6,0.280,-0.681,4095,4095,4083,4095,5.310,8.240
952,0.000,-2.692,-0.890,0.000,5.376,8.400,-0.443,8.185,-1.132,0.005,5.383,8.391,-0.717,0.000,0.000,0.000,0.000,6,0.281,-0.681,4095,4095,4088,4095,5.402,8.331
953,0.000,-2.692,-0.890,0.005,5.292,8.369,-0.504,8.207,-1.132,-0.005,5.429,8.393,-0.656,0.000,0.000,0.000,0.000,6,0.281,-0.681,4095,4095,4088,4095,5.310,8.331
954,0.000,-2.692,-0.890,0.000,5.254,8.362,-0.656,8.207,-1.132,0.000,5.486,8.398,-0.687,0.000,0.000,0.000,0.000,6,0.281,-0.681,4095,4095,4087,4095,5.402,8.331
955,0.000,-2.692,-0.890,0.000,5.304,8.383,-0.595,8.207,-1.132,0.000,5.415,8.412,-0.656,0.000,0.000,0.000,0.000,6,0.282,-0.681,4095,4095,4087,4095,5.310,8.331
956,0.000,-2.692,-0.890,0.005,5.314,8.415,-0.443,8.229,-1.132,-0.005,5.443,8.422,-0.565,0.000,0.000,0.000,0.000,6,0.282,-0.681,4095,4095,4081,4095,5.219,8.331
957,0.000,-2.714,-0.890,-0.016,5.280,8.405,-0.412,8.229,-1.132,0.005,5.544,8.376,-0.412,0.000,0.000,0.000,0.000,6,0.282,-0.681,4095,4095,4082,4095,5.219,8.331
958,0.000,-2.714,-0.890,0.000,5.355,8.381,-0.320,8.251,-1.132,0.005,5.491,8.424,-0.504,0.000,0.000,0.000,0.000,6,0.281,-0.680,4095,4095,4083,4095,5.219,8.331
959,0.000,-2.714,-0.868,0.000,5.374,8.393,-0.137,8.251,-1.132,-0.005,5.460,8.498,-0.534,0.000,0.000,0.000,0.000,6,0.281,-0.681,4095,4095,4085,4095,5.310,8.331
960,0.000,-2.714,-0.868,-0.016,5.290,8.410,-0.229,8.251,-1.132,0.000,5.427,8.474,-0.565,0.000,0.000,0.000,0.000,6,0.281,-0.680,4095,4095,4087,4095,5.219,8.331
961,0.000,-2.714,-0.868,0.000,5.283,8.412,-0.259,8.251,-1.132,-0.005,5.479,8.438,-0.443,0.000,0.000,0.000,0.000,6,0.281,-0.681,4095,4095,4087,4095,5.310,8.331
962,0.000,-2.714,-0.868,-0.005,5.254,8.376,-0.290,8.273,-1.132,0.000,5.532,8.419,-0.259,0.000,0.000,0.000,0.000,6,0.281,-0.680,4095,4095,4087,4095,5.310,8.331
963,0.000,-2.736,-0.868,0.005,5.218,8.386,-0.259,8.273,-1.132,-0.005,5.496,8.460,-0.259,0.000,0.000,0.000,0.000,6,0.281,-0.680,4095,4095,4085,4095,5.219,8.331
964,0.000,-2.736,-0.868,0.000,5.221,8.415,-0.137,8.295,-1.132,0.000,5.568,8.448,-0.320,0.000,0.000,0.000,0.000,6,0.280,-0.681,4095,4095,4083,4095,5.219,8.331
965,0.000,-2.758,-0.868,-0.005,5.194,8.388,-0.198,8.295,-1.132,0.000,5.558,8.424,-0.198,0.000,0.000,0.000,0.000,6,0.280,-0.680,4095,4095,4083,4095,5.219,8.331
966,0.000,-2.758,-0.868,0.016,5.285,8.419,-0.229,8.317,-1.132,0.000,5.553,8.412,-0.046,0.000,0.000,0.000,0.000,6,0.281,-0.680,4095,4095,4083,4095,5.219,8.331
967,0.000,-2.780,-0.868,0.000,5.288,8.419,-0.198,8.339,-1.132,0.000,5.558,8.407,0.000,0.000,0.000,0.000,0.000,6,0.281,-0.680,4095,4095,4086,4095,5.219,8.331
968,0.000,-2.780,-0.868,-0.016,5.309,8.419,-0.168,8.339,-1.132,-0.005,5.506,8.395,-0.046,0.000,0.000,0.000,0.000,6,0.281,-0.680,4095,4095,4089,4095,5.127,8.331
969,0.000,-2.780,-0.868,-0.005,5.367,8.453,-0.259,8.361,-1.132,0.005,5.470,8.419,-0.168,0.000,0.000,0.000,0.000,6,0.281,-0.680,4095,4095,4087,4095,5.219,8.331
970,0.000,-2.780,-0.868,-0.016,5.307,8.415,-0.198,8.361,-1.132,0.000,5.510,8.455,-0.076,0.000,0.000,0.000,0.000,6,0.280,-0.680,4095,4095,4087,4095,5.219,8.331
971,0.000,-2.780,-0.868,0.005,5.259,8.383,-0.137,8.361,-1.132,-0.005,5.537,8.443,-0.015,0.000,0.000,0.000,0.000,6,0.280,-0.680,4095,4095,4084,4095,5.310,8.423
972,0.000,-2.802,-0.868,-0.005,5.216,8.376,-0.168,8.361,-1.132,0.005,5.479,8.467,0.000,0.000,0.000,0.000,0.000,6,0.281,-0.680,4095,4095,4082,4095,5.310,8.423
973,0.000,-2.802,-0.868,-0.016,5.158,8.383,-0.320,8.383,-1.132,0.000,5.506,8.455,-0.046,0.000,0.000,0.000,0.000,6,0.281,-0.680,4095,4095,4082,4095,5.219,8.331
974,0.000,-2.824,-0.868,0.016,5.190,8.412,-0.351,8.383,-1.132,0.016,5.527,8.410,-0.137,0.000,0.000,0.000,0.000,6,0.281,-0.680,4095,4095,4082,4095,5.219,8.331
975,0.000,-2.824,-0.868,-0.005,5.295,8.479,-0.168,8.405,-1.132,0.000,5.563,8.412,-0.015,0.000,0.000,0.000,0.000,6,0.281,-0.680,4095,4095,4083,4095,5.127,8.331
976,0.000,-2.846,-0.868,0.005,5.237,8.448,-0.198,8.405,-1.132,0.000,5.592,8.427,0.015,0.000,0.000,0.000,0.000,6,0.281,-0.679,4095,4095,4084,4095,5.127,8.331
977,0.000,-2.846,-0.868,0.000,5.204,8.417,-0.076,8.427,-1.132,0.005,5.503,8.403,-0.015,0.000,0.000,0.000,0.000,6,0.281,-0.680,4095,4095,4087,4095,5.127,8.331
