loopCnt,assist_level,thighDeg_RH,incPosDeg_RH,MotorActCurrent_RH,accX_Calib_RH,accY_Calib_RH,gyroZ_Calib_RH,thighDeg_LH,incPosDeg_LH,MotorActCurrent_LH,accX_Calib_LH,accY_Calib_LH,gyroZ_Calib_LH,u_RH,u_LH,Pvector_ref_RH,Pvector_ref_LH,extension_control_mode,emg_R1,emg_L1,fsr_R1,fsr_R2,fsr_L1,fsr_L2,free_var1,free_var2
228,0.000,-2.494,20.028,0.000,2.903,9.363,0.961,-2.560,14.711,-0.005,2.565,9.691,0.839,0.000,0.000,0.000,0.000,6,-0.002,0.010,780,1045,1248,912,2.838,9.339
229,0.000,-2.494,20.028,0.000,2.860,9.315,0.839,-2.582,14.711,-0.005,2.625,9.686,0.778,0.000,0.000,0.000,0.000,6,-0.002,0.010,780,1045,1248,911,2.838,9.339
230,0.000,-2.494,20.028,0.000,2.841,9.293,0.900,-2.582,14.711,0.005,2.652,9.686,0.656,0.000,0.000,0.000,0.000,6,-0.002,0.010,780,1045,1248,912,2.838,9.339
231,0.000,-2.494,20.028,0.016,2.886,9.322,0.900,-2.604,14.711,-0.005,2.616,9.707,0.687,0.000,0.000,0.000,0.000,6,-0.002,0.010,780,1045,1250,912,2.838,9.339
232,0.000,-2.494,20.028,0.005,2.881,9.336,0.809,-2.604,14.711,-0.005,2.609,9.686,0.748,0.000,0.000,0.000,0.000,6,-0.002,0.010,780,1045,1249,911,2.838,9.339
233,0.000,-2.494,20.028,0.005,2.877,9.341,0.900,-2.626,14.711,-0.005,2.604,9.688,0.626,0.000,0.000,0.000,0.000,6,-0.002,0.010,780,1045,1247,912,2.838,9.247
234,0.000,-2.472,20.028,0.000,2.891,9.332,0.870,-2.648,14.711,0.000,2.618,9.719,0.565,0.000,0.000,0.000,0.000,6,-0.002,0.010,781,1044,1247,912,2.838,9.247
235,0.000,-2.472,20.028,0.000,2.901,9.312,0.839,-2.648,14.711,-0.005,2.597,9.734,0.595,0.000,0.000,0.000,0.000,6,-0.002,0.010,780,1044,1248,911,2.838,9.247
236,0.000,-2.472,20.028,-0.005,2.850,9.298,0.778,-2.670,14.711,0.000,2.565,9.717,0.626,0.000,0.000,0.000,0.000,6,-0.002,0.009,780,1044,1248,912,2.838,9.247
237,0.000,-2.472,20.028,0.000,2.865,9.276,0.809,-2.692,14.711,0.000,2.606,9.724,0.687,0.000,0.000,0.000,0.000,6,-0.002,0.010,780,1044,1248,912,2.838,9.339
238,0.000,-2.472,20.028,-0.005,2.869,9.296,0.748,-2.714,14.711,-0.005,2.558,9.727,0.656,0.000,0.000,0.000,0.000,6,-0.002,0.010,780,1044,1248,911,2.838,9.247
239,0.000,-2.472,20.028,0.000,2.872,9.348,0.809,-2.736,14.711,-0.016,2.541,9.739,0.595,0.000,0.000,0.000,0.000,6,-0.002,0.010,779,1043,1248,910,2.838,9.247
240,0.000,-2.472,20.028,0.005,2.836,9.370,0.595,-2.736,14.711,-0.005,2.558,9.743,0.656,0.000,0.000,0.000,0.000,6,-0.002,0.009,780,1042,1248,911,2.838,9.247
241,0.000,-2.472,20.028,-0.016,2.843,9.360,0.626,-2.758,14.711,0.000,2.558,9.715,0.687,0.000,0.000,0.000,0.000,6,-0.002,0.010,780,1043,1248,912,2.838,9.247
242,0.000,-2.472,20.028,0.000,2.867,9.327,0.717,-2.780,14.711,-0.005,2.546,9.700,0.656,0.000,0.000,0.000,0.000,6,-0.002,0.010,780,1042,1248,911,2.838,9.247
243,0.000,-2.472,20.028,0.016,2.862,9.322,0.809,-2.802,14.711,0.000,2.606,9.698,0.717,0.000,0.000,0.000,0.000,6,-0.001,0.010,780,1043,1248,910,2.838,9.339
244,0.000,-2.472,20.028,0.000,2.822,9.341,0.778,-2.802,14.711,0.005,2.616,9.712,0.626,0.000,0.000,0.000,0.000,6,-0.001,0.010,778,1043,1248,910,2.747,9.339
245,0.000,-2.472,20.028,-0.005,2.807,9.310,0.717,-2.824,14.711,0.000,2.594,9.700,0.443,0.000,0.000,0.000,0.000,6,-0.002,0.010,780,1043,1248,911,2.838,9.339
246,0.000,-2.472,20.028,0.000,2.886,9.284,0.656,-2.824,14.711,0.005,2.556,9.693,0.443,0.000,0.000,0.000,0.000,6,-0.001,0.010,780,1042,1248,911,2.838,9.247
247,0.000,-2.472,20.028,-0.016,2.867,9.315,0.687,-2.846,14.711,0.005,2.556,9.715,0.381,0.000,0.000,0.000,0.000,6,-0.001,0.010,780,1042,1248,910,2.838,9.247
248,0.000,-2.472,20.028,-0.005,2.838,9.310,0.717,-2.867,14.711,0.000,2.580,9.712,0.565,0.000,0.000,0.000,0.000,6,-0.001,0.010,780,1042,1248,911,2.747,9.339
249,0.000,-2.472,20.028,0.000,2.865,9.296,0.565,-2.889,14.711,0.000,2.561,9.700,0.687,0.000,0.000,0.000,0.000,6,-0.001,0.010,780,1042,1248,910,2.747,9.247
250,0.000,-2.472,20.028,0.005,2.879,9.332,0.473,-2.889,14.711,0.000,2.551,9.727,0.626,0.000,0.000,0.000,0.000,6,-0.001,0.010,780,1042,1248,910,2.838,9.247
251,0.000,-2.472,20.028,0.005,2.853,9.355,0.473,-2.911,14.711,0.005,2.544,9.710,0.534,0.000,0.000,0.000,0.000,6,-0.001,0.010,780,1042,1248,911,2.838,9.247
252,0.000,-2.472,20.028,0.005,2.802,9.344,0.534,-2.933,14.711,0.000,2.582,9.679,0.351,0.000,0.000,0.000,0.000,6,-0.001,0.010,780,1041,1248,911,2.838,9.247
253,0.000,-2.472,20.028,-0.005,2.829,9.322,0.565,-2.933,14.711,0.000,2.565,9.681,0.381,0.000,0.000,0.000,0.000,6,-0.001,0.010,780,1042,1248,911,2.838,9.247
254,0.000,-2.494,20.028,-0.005,2.850,9.308,0.504,-2.955,14.711,0.005,2.568,9.683,0.412,0.000,0.000,0.000,0.000,6,-0.001,0.010,779,1041,1247,910,2.838,9.247
255,0.000,-2.494,20.028,0.005,2.855,9.344,0.504,-2.955,14.711,0.000,2.573,9.676,0.290,0.000,0.000,0.000,0.000,6,-0.001,0.009,780,1041,1248,910,2.838,9.339
256,0.000,-2.494,20.028,0.005,2.853,9.377,0.443,-2.977,14.711,0.005,2.522,9.691,0.259,0.000,0.000,0.000,0.000,6,-0.001,0.010,780,1041,1248,911,2.747,9.339
257,0.000,-2.494,20.028,0.005,2.831,9.327,0.534,-2.999,14.711,-0.005,2.532,9.715,0.381,0.000,0.000,0.000,0.000,6,-0.001,0.010,780,1042,1248,910,2.747,9.247
258,0.000,-2.494,20.028,0.005,2.889,9.305,0.534,-2.999,14.711,-0.005,2.549,9.710,0.381,0.000,0.000,0.000,0.000,6,-0.001,0.010,780,1041,1248,911,2.838,9.247
259,0.000,-2.472,20.028,-0.005,2.925,9.291,0.412,-3.021,14.711,-0.005,2.541,9.717,0.351,0.000,0.000,0.000,0.000,6,-0.001,0.010,779,1041,1248,910,2.838,9.339
260,0.000,-2.472,20.028,0.016,2.848,9.257,0.381,-3.043,14.711,-0.005,2.534,9.676,0.290,0.000,0.000,0.000,0.000,6,-0.001,0.010,780,1040,1247,910,2.838,9.339
261,0.000,-2.472,20.028,-0.005,2.800,9.298,0.443,-3.043,14.711,-0.005,2.527,9.674,0.259,0.000,0.000,0.000,0.000,6,-0.001,0.010,781,1040,1247,910,2.747,9.247
262,0.000,-2.472,20.028,-0.005,2.841,9.315,0.412,-3.065,14.711,-0.005,2.594,9.710,0.290,0.000,0.000,0.000,0.000,6,-0.001,0.010,780,1040,1248,911,2.838,9.247
263,0.000,-2.472,20.028,0.005,2.881,9.298,0.412,-3.065,14.711,0.005,2.606,9.683,0.137,0.000,0.000,0.000,0.000,6,-0.001,0.009,780,1040,1249,911,2.838,9.247
264,0.000,-2.472,20.028,0.000,2.881,9.315,0.259,-3.065,14.711,0.000,2.546,9.674,0.198,0.000,0.000,0.000,0.000,6,-0.001,0.010,780,1040,1247,910,2.838,9.247
265,0.000,-2.472,20.028,-0.005,2.865,9.351,0.168,-3.087,14.711,-0.005,2.553,9.681,0.229,0.000,0.000,0.000,0.000,6,-0.001,0.009,780,1040,1247,911,2.747,9.247
266,0.000,-2.472,20.028,0.000,2.884,9.324,0.351,-3.087,14.711,-0.005,2.582,9.691,0.290,0.000,0.000,0.000,0.000,6,-0.001,0.009,780,1039,1248,910,2.838,9.247
267,0.000,-2.472,20.028,-0.005,2.867,9.324,0.412,-3.109,14.711,-0.005,2.582,9.705,0.259,0.000,0.000,0.000,0.000,6,-0.001,0.009,780,1040,1247,910,2.838,9.247
268,0.000,-2.472,20.028,0.000,2.831,9.329,0.381,-3.109,14.711,0.005,2.534,9.715,0.259,0.000,0.000,0.000,0.000,6,-0.001,0.009,780,1039,1247,911,2.838,9.247
269,0.000,-2.472,20.028,-0.005,2.826,9.300,0.473,-3.131,14.711,0.000,2.508,9.705,0.259,0.000,0.000,0.000,0.000,6,-0.001,0.009,780,1039,1248,910,2.838,9.339
270,0.000,-2.472,20.028,0.005,2.788,9.281,0.259,-3.153,14.711,0.000,2.520,9.698,0.198,0.000,0.000,0.000,0.000,6,-0.001,0.009,780,1039,1249,910,2.838,9.247
271,0.000,-2.472,20.028,0.000,2.790,9.300,0.137,-3.153,14.711,0.005,2.604,9.679,0.000,0.000,0.000,0.000,0.000,6,-0.001,0.009,780,1039,1248,910,2.838,9.247
272,0.000,-2.494,20.028,0.000,2.824,9.344,0.259,-3.153,14.711,0.000,2.637,9.650,0.015,0.000,0.000,0.000,0.000,6,-0.001,0.009,780,1038,1246,911,2.747,9.247
273,0.000,-2.494,20.028,0.000,2.836,9.339,0.351,-3.153,14.711,0.000,2.580,9.698,0.229,0.000,0.000,0.000,0.000,6,-0.001,0.009,781,1038,1247,911,2.747,9.247
274,0.000,-2.494,20.028,-0.005,2.814,9.317,0.290,-3.175,14.711,-0.005,2.573,9.712,-0.015,0.000,0.000,0.000,0.000,6,-0.001,0.009,780,1038,1248,910,2.747,9.247
275,0.000,-2.494,20.028,0.000,2.790,9.315,0.229,-3.175,14.711,0.005,2.604,9.667,-0.046,0.000,0.000,0.000,0.000,6,-0.001,0.009,780,1038,1248,910,2.747,9.247
276,0.000,-2.494,20.028,0.005,2.822,9.324,0.198,-3.175,14.711,-0.005,2.592,9.679,-0.015,0.000,0.000,0.000,0.000,6,-0.001,0.009,780,1038,1248,911,2.747,9.339
277,0.000,-2.494,20.028,0.000,2.853,9.308,0.320,-3.175,14.711,-0.016,2.609,9.679,0.137,0.000,0.000,0.000,0.000,6,-0.001,0.009,780,1039,1248,910,2.747,9.339
278,0.000,-2.494,20.028,0.000,2.841,9.336,0.229,-3.175,14.711,-0.005,2.592,9.657,0.107,0.000,0.000,0.000,0.000,6,-0.001,0.009,779,1038,1247,910,2.747,9.247
279,0.000,-2.494,20.028,0.000,2.822,9.353,0.137,-3.197,14.711,0.000,2.585,9.664,0.000,0.000,0.000,0.000,0.000,6,-0.001,0.009,780,1038,1247,912,2.747,9.247
280,0.000,-2.516,20.028,0.005,2.798,9.312,0.015,-3.197,14.711,-0.005,2.587,9.691,0.015,0.000,0.000,0.000,0.000,6,-0.001,0.009,780,1038,1248,912,2.747,9.247
281,0.000,-2.516,20.028,0.000,2.788,9.276,0.046,-3.197,14.711,-0.005,2.546,9.669,0.137,0.000,0.000,0.000,0.000,6,-0.001,0.009,780,1038,1247,910,2.838,9.247
282,0.000,-2.516,20.028,-0.005,2.817,9.300,0.000,-3.219,14.711,-0.016,2.541,9.643,0.046,0.000,0.000,0.000,0.000,6,-0.001,0.009,780,1038,1247,910,2.838,9.247
283,0.000,-2.516,20.028,0.000,2.834,9.324,0.015,-3.219,14.711,-0.016,2.570,9.645,0.107,0.000,0.000,0.000,0.000,6,-0.001,0.009,780,1038,1247,911,2.747,9.339
284,0.000,-2.516,20.028,0.005,2.819,9.310,0.046,-3.219,14.711,0.016,2.604,9.636,0.000,0.000,0.000,0.000,0.000,6,-0.002,0.009,780,1038,1248,912,2.747,9.247
285,0.000,-2.516,20.028,0.005,2.848,9.327,0.076,-3.219,14.711,0.000,2.565,9.612,0.000,0.000,0.000,0.000,0.000,6,-0.002,0.009,780,1037,1247,911,2.747,9.247
286,0.000,-2.516,20.028,-0.005,2.829,9.327,0.015,-3.219,14.711,0.000,2.541,9.628,0.000,0.000,0.000,0.000,0.000,6,-0.001,0.009,780,1037,1247,911,2.747,9.247
287,0.000,-2.516,20.028,-0.005,2.790,9.322,0.000,-3.241,14.711,0.000,2.577,9.636,-0.107,0.000,0.000,0.000,0.000,6,-0.001,0.009,780,1037,1247,912,2.747,9.247
288,0.000,-2.538,20.028,0.000,2.805,9.351,-0.046,-3.241,14.711,-0.005,2.625,9.616,-0.046,0.000,0.000,0.000,0.000,6,-0.001,0.009,779,1037,1247,911,2.747,9.247
289,0.000,-2.538,20.028,0.016,2.805,9.334,-0.015,-3.241,14.711,-0.005,2.606,9.619,-0.076,0.000,0.000,0.000,0.000,6,-0.001,0.009,780,1036,1247,911,2.838,9.247
290,0.000,-2.538,20.028,0.005,2.834,9.344,0.000,-3.241,14.711,0.000,2.573,9.636,-0.107,0.000,0.000,0.000,0.000,6,-0.001,0.009,780,1037,1248,912,2.747,9.247
291,0.000,-2.538,20.028,-0.005,2.819,9.360,0.000,-3.241,14.711,0.005,2.577,9.657,-0.046,0.000,0.000,0.000,0.000,6,-0.001,0.009,780,1036,1248,912,2.747,9.247
292,0.000,-2.538,20.028,0.005,2.831,9.360,-0.168,-3.241,14.711,0.005,2.563,9.655,0.000,0.000,0.000,0.000,0.000,6,-0.002,0.009,780,1036,1247,913,2.747,9.339
293,0.000,-2.538,20.028,0.005,2.886,9.355,-0.229,-3.241,14.711,0.000,2.573,9.650,-0.046,0.000,0.000,0.000,0.000,6,-0.002,0.009,780,1037,1247,912,2.747,9.247
294,0.000,-2.538,20.028,0.016,2.836,9.320,-0.137,-3.263,14.711,0.000,2.589,9.640,-0.107,0.000,0.000,0.000,0.000,6,-0.001,0.009,780,1036,1248,912,2.747,9.339
295,0.000,-2.538,20.028,0.000,2.781,9.332,-0.046,-3.263,14.711,0.000,2.592,9.631,-0.137,0.000,0.000,0.000,0.000,6,-0.001,0.009,780,1037,1247,912,2.747,9.339
296,0.000,-2.538,20.028,-0.016,2.767,9.370,-0.107,-3.263,14.711,0.005,2.597,9.643,0.000,0.000,0.000,0.000,0.000,6,-0.001,0.009,780,1037,1248,912,2.747,9.339
297,0.000,-2.560,20.028,0.005,2.793,9.360,-0.198,-3.263,14.711,0.000,2.637,9.652,0.000,0.000,0.000,0.000,0.000,6,-0.001,0.009,780,1037,1247,912,2.838,9.339
298,0.000,-2.560,20.028,0.000,2.812,9.329,-0.351,-3.263,14.711,0.000,2.630,9.657,0.000,0.000,0.000,0.000,0.000,6,-0.001,0.009,780,1037,1247,912,2.747,9.247
299,0.000,-2.560,20.028,-0.016,2.819,9.348,-0.259,-3.263,14.711,0.000,2.625,9.648,-0.076,0.000,0.000,0.000,0.000,6,-0.001,0.009,780,1037,1247,913,2.747,9.247
300,0.000,-2.560,20.028,-0.005,2.841,9.379,-0.290,-3.263,14.711,0.005,2.623,9.674,-0.229,0.000,0.000,0.000,0.000,6,-0.001,0.009,781,1037,1247,912,2.747,9.339
301,0.000,-2.560,20.028,-0.027,2.826,9.382,-0.168,-3.263,14.711,-0.016,2.637,9.652,-0.229,0.000,0.000,0.000,0.000,6,-0.001,0.009,780,1037,1248,913,2.747,9.339
302,0.000,-2.560,20.028,0.005,2.836,9.341,-0.076,-3.241,14.711,0.005,2.652,9.602,-0.168,0.000,0.000,0.000,0.000,6,-0.001,0.008,780,1037,1248,913,2.747,9.247
303,0.000,-2.560,20.028,0.005,2.831,9.320,-0.198,-3.241,14.711,0.000,2.611,9.619,-0.290,0.000,0.000,0.000,0.000,6,-0.001,0.009,780,1037,1247,913,2.747,9.339
304,0.000,-2.560,20.028,0.000,2.812,9.365,-0.259,-3.241,14.711,0.000,2.630,9.650,-0.229,0.000,0.000,0.000,0.000,6,-0.001,0.009,780,1037,1247,913,2.838,9.339
305,0.000,-2.560,20.028,0.005,2.862,9.387,-0.381,-3.241,14.711,0.005,2.688,9.648,-0.198,0.000,0.000,0.000,0.000,6,-0.001,0.009,780,1037,1248,913,2.747,9.339
306,0.000,-2.560,20.028,0.005,2.893,9.394,-0.290,-3.241,14.711,-0.005,2.695,9.628,-0.168,0.000,0.000,0.000,0.000,6,-0.001,0.009,780,1037,1247,913,2.747,9.339
307,0.000,-2.560,20.028,0.016,2.869,9.375,-0.198,-3.219,14.711,-0.005,2.659,9.640,-0.137,0.000,0.000,0.000,0.000,6,-0.001,0.009,780,1037,1247,913,2.747,9.247
308,0.000,-2.560,20.028,0.005,2.860,9.377,-0.259,-3.219,14.711,0.000,2.668,9.633,-0.259,0.000,0.000,0.000,0.000,6,-0.001,0.009,780,1038,1248,913,2.747,9.339
309,0.000,-2.560,20.028,0.000,2.891,9.396,-0.351,-3.219,14.711,-0.005,2.659,9.648,-0.290,0.000,0.000,0.000,0.000,6,-0.001,0.009,780,1037,1249,914,2.838,9.339
310,0.000,-2.560,20.028,-0.005,2.903,9.394,-0.443,-3.219,14.711,0.000,2.676,9.657,-0.137,0.000,0.000,0.000,0.000,6,-0.001,0.009,780,1038,1248,913,2.838,9.339
311,0.000,-2.538,20.028,0.000,2.869,9.363,-0.504,-3.197,14.711,0.016,2.709,9.648,-0.168,0.000,0.000,0.000,0.000,6,-0.001,0.009,780,1037,1247,915,2.838,9.339
312,0.000,-2.538,20.028,-0.005,2.886,9.399,-0.504,-3.197,14.711,0.000,2.668,9.672,-0.137,0.000,0.000,0.000,0.000,6,-0.001,0.009,782,1038,1246,915,2.838,9.339
313,0.000,-2.538,20.028,0.000,2.893,9.391,-0.473,-3.197,14.711,0.000,2.676,9.669,-0.015,0.000,0.000,0.000,0.000,6,-0.001,0.009,780,1038,1248,913,2.838,9.339
314,0.000,-2.538,20.028,0.000,2.867,9.391,-0.381,-3.197,14.711,-0.005,2.623,9.643,-0.076,0.000,0.000,0.000,0.000,6,-0.001,0.009,780,1038,1247,914,2.838,9.339
315,0.000,-2.538,20.028,0.000,2.865,9.418,-0.381,-3.197,14.711,-0.016,2.652,9.631,-0.168,0.000,0.000,0.000,0.000,6,-0.002,0.009,780,1038,1247,915,2.838,9.339
316,0.000,-2.538,20.028,0.005,2.865,9.408,-0.412,-3.197,14.711,0.005,2.690,9.645,-0.137,0.000,0.000,0.000,0.000,6,-0.002,0.009,779,1038,1247,914,2.838,9.339
317,0.000,-2.538,20.028,0.005,2.836,9.423,-0.473,-3.175,14.711,0.000,2.664,9.683,-0.137,0.000,0.000,0.000,0.000,6,-0.001,0.009,780,1038,1247,914,2.838,9.339
318,0.000,-2.538,20.028,0.000,2.836,9.434,-0.381,-3.175,14.711,0.000,2.702,9.648,-0.107,0.000,0.000,0.000,0.000,6,-0.001,0.009,780,1038,1247,916,2.838,9.339
319,0.000,-2.538,20.028,-0.005,2.896,9.430,-0.320,-3.175,14.711,-0.005,2.676,9.631,-0.168,0.000,0.000,0.000,0.000,6,-0.002,0.010,780,1038,1247,917,2.838,9.339
320,0.000,-2.538,20.028,-0.005,2.905,9.430,-0.381,-3.175,14.711,0.000,2.659,9.693,-0.198,0.000,0.000,0.000,0.000,6,-0.002,0.009,780,1038,1248,915,2.838,9.339
321,0.000,-2.538,20.028,0.000,2.886,9.434,-0.381,-3.175,14.711,-0.005,2.676,9.631,0.000,0.000,0.000,0.000,0.000,6,-0.001,0.009,780,1038,1247,914,2.747,9.339
322,0.000,-2.538,20.028,0.000,2.879,9.418,-0.107,-3.153,14.711,-0.005,2.690,9.616,-0.015,0.000,0.000,0.000,0.000,6,-0.001,0.009,779,1038,1247,915,2.747,9.430
323,0.000,-2.538,20.028,0.000,2.881,9.423,-0.076,-3.153,14.711,0.000,2.697,9.624,-0.168,0.000,0.000,0.000,0.000,6,-0.002,0.009,780,1039,1247,916,2.838,9.430
324,0.000,-2.538,20.028,-0.005,2.908,9.458,-0.229,-3.153,14.711,0.005,2.709,9.638,-0.198,0.000,0.000,0.000,0.000,6,-0.002,0.009,780,1038,1247,915,2.838,9.430
325,0.000,-2.516,20.028,0.005,2.915,9.470,-0.412,-3.131,14.711,0.000,2.728,9.664,-0.137,0.000,0.000,0.000,0.000,6,-0.001,0.009,780,1038,1247,915,2.838,9.430
326,0.000,-2.516,20.028,0.005,2.915,9.470,-0.412,-3.131,14.711,0.000,2.719,9.650,0.000,0.000,0.000,0.000,0.000,6,-0.002,0.009,780,1038,1247,916,2.838,9.339
327,0.000,-2.516,20.028,0.000,2.881,9.439,-0.320,-3.131,14.711,0.005,2.668,9.626,-0.076,0.000,0.000,0.000,0.000,6,-0.002,0.009,780,1038,1247,916,2.838,9.339
328,0.000,-2.516,20.028,0.005,2.893,9.442,-0.290,-3.109,14.711,0.000,2.656,9.626,-0.168,0.000,0.000,0.000,0.000,6,-0.001,0.009,780,1038,1247,916,2.838,9.430
329,0.000,-2.516,20.028,0.005,2.898,9.432,-0.229,-3.109,14.711,0.000,2.700,9.619,-0.046,0.000,0.000,0.000,0.000,6,-0.001,0.009,780,1038,1247,916,2.838,9.430
330,0.000,-2.516,20.028,-0.005,2.886,9.427,-0.198,-3.109,14.711,-0.005,2.745,9.600,-0.046,0.000,0.000,0.000,0.000,6,-0.001,0.009,780,1038,1247,916,2.838,9.430
331,0.000,-2.516,20.028,0.016,2.872,9.446,-0.320,-3.087,14.711,0.027,2.716,9.626,0.046,0.000,0.000,0.000,0.000,6,-0.002,0.010,780,1038,1247,916,2.838,9.430
332,0.000,-2.516,20.028,0.000,2.884,9.411,-0.259,-3.087,14.711,0.000,2.716,9.612,0.046,0.000,0.000,0.000,0.000,6,-0.002,0.009,780,1038,1247,916,2.838,9.430
333,0.000,-2.516,20.028,0.005,2.889,9.432,-0.198,-3.087,14.711,0.005,2.709,9.585,0.107,0.000,0.000,0.000,0.000,6,-0.002,0.009,780,1038,1247,917,2.838,9.430
334,0.000,-2.516,20.028,0.005,2.874,9.480,-0.137,-3.065,14.711,0.005,2.726,9.578,0.137,0.000,0.000,0.000,0.000,6,-0.002,0.009,780,1037,1247,917,2.838,9.339
335,0.000,-2.516,20.028,0.000,2.958,9.487,-0.290,-3.065,14.711,0.000,2.745,9.595,0.000,0.000,0.000,0.000,0.000,6,-0.002,0.010,780,1038,1247,917,2.838,9.430
336,0.000,-2.494,20.028,0.000,2.949,9.466,-0.290,-3.043,14.711,-0.005,2.707,9.616,0.000,0.000,0.000,0.000,0.000,6,-0.001,0.009,780,1037,1247,917,2.838,9.339
337,0.000,-2.494,20.028,0.000,2.920,9.434,-0.320,-3.043,14.711,0.000,2.745,9.616,0.000,0.000,0.000,0.000,0.000,6,-0.001,0.010,780,1037,1247,917,2.838,9.430
338,0.000,-2.494,20.028,0.016,2.953,9.434,-0.351,-3.021,14.711,0.000,2.755,9.628,0.000,0.000,0.000,0.000,0.000,6,-0.002,0.009,780,1037,1247,917,2.838,9.430
339,0.000,-2.494,20.028,0.000,2.901,9.454,-0.320,-3.021,14.711,0.000,2.755,9.631,0.107,0.000,0.000,0.000,0.000,6,-0.002,0.009,781,1037,1247,917,2.930,9.430
340,0.000,-2.494,20.028,0.005,2.877,9.451,-0.137,-2.999,14.711,0.005,2.762,9.597,0.107,0.000,0.000,0.000,0.000,6,-0.002,0.010,780,1037,1248,917,2.930,9.430
341,0.000,-2.494,20.028,0.000,2.903,9.427,-0.107,-2.999,14.711,-0.005,2.750,9.604,0.000,0.000,0.000,0.000,0.000,6,-0.002,0.009,780,1036,1248,917,2.838,9.430
342,0.000,-2.472,20.028,0.000,2.893,9.415,-0.320,-2.977,14.711,0.000,2.755,9.621,0.046,0.000,0.000,0.000,0.000,6,-0.002,0.010,780,1036,1247,917,2.930,9.430
343,0.000,-2.472,20.028,0.005,2.901,9.446,-0.412,-2.977,14.711,0.005,2.726,9.612,0.046,0.000,0.000,0.000,0.000,6,-0.002,0.010,780,1036,1247,917,2.838,9.430
344,0.000,-2.472,20.028,0.000,2.920,9.466,-0.259,-2.977,14.711,0.000,2.721,9.626,0.107,0.000,0.000,0.000,0.000,6,-0.002,0.010,780,1036,1248,917,2.838,9.430
345,0.000,-2.472,20.028,0.000,2.905,9.434,-0.015,-2.955,14.711,0.000,2.764,9.602,0.259,0.000,0.000,0.000,0.000,6,-0.001,0.010,780,1035,1247,917,2.838,9.339
346,0.000,-2.472,20.028,0.000,2.891,9.442,-0.107,-2.955,14.711,-0.005,2.731,9.600,0.198,0.000,0.000,0.000,0.000,6,-0.001,0.010,780,1036,1247,918,2.838,9.339
347,0.000,-2.472,20.028,-0.005,2.905,9.461,-0.076,-2.955,14.711,-0.005,2.719,9.616,0.168,0.000,0.000,0.000,0.000,6,-0.001,0.009,780,1036,1247,918,2.838,9.430
348,0.000,-2.472,20.028,0.000,2.898,9.449,-0.046,-2.933,14.711,0.000,2.762,9.636,0.168,0.000,0.000,0.000,0.000,6,-0.002,0.010,780,1035,1249,918,2.838,9.430
349,0.000,-2.472,20.028,0.000,2.905,9.492,-0.076,-2.933,14.711,-0.005,2.757,9.616,0.229,0.000,0.000,0.000,0.000,6,-0.002,0.010,780,1035,1248,918,2.838,9.430
350,0.000,-2.472,20.028,-0.005,2.958,9.482,-0.015,-2.933,14.711,0.000,2.735,9.633,0.229,0.000,0.000,0.000,0.000,6,-0.001,0.009,780,1035,1246,919,2.838,9.430
351,0.000,-2.472,20.028,0.016,2.915,9.439,0.107,-2.911,14.711,-0.016,2.743,9.638,0.229,0.000,0.000,0.000,0.000,6,-0.001,0.010,780,1035,1246,919,2.838,9.430
352,0.000,-2.472,20.028,0.000,2.865,9.487,0.107,-2.911,14.711,0.000,2.719,9.612,0.107,0.000,0.000,0.000,0.000,6,-0.001,0.010,780,1035,1247,918,2.838,9.430
353,0.000,-2.472,20.028,-0.005,2.872,9.494,-0.046,-2.911,14.711,0.000,2.704,9.609,0.137,0.000,0.000,0.000,0.000,6,-0.001,0.009,780,1035,1247,918,2.838,9.430
354,0.000,-2.472,20.028,-0.005,2.889,9.458,-0.076,-2.911,14.711,0.005,2.721,9.602,0.137,0.000,0.000,0.000,0.000,6,-0.001,0.010,780,1035,1247,919,2.930,9.430
355,0.000,-2.472,20.028,0.000,2.893,9.449,-0.046,-2.889,14.711,0.000,2.692,9.602,0.198,0.000,0.000,0.000,0.000,6,-0.001,0.010,780,1035,1247,919,2.838,9.430
356,0.000,-2.472,20.028,0.005,2.886,9.411,0.000,-2.889,14.711,-0.005,2.714,9.559,0.168,0.000,0.000,0.000,0.000,6,-0.001,0.010,779,1034,1247,918,2.838,9.430
357,0.000,-2.472,20.028,-0.005,2.903,9.411,0.107,-2.889,14.711,0.000,2.774,9.561,0.168,0.000,0.000,0.000,0.000,6,-0.001,0.010,780,1034,1247,920,2.838,9.430
358,0.000,-2.472,20.028,0.000,2.891,9.420,0.015,-2.867,14.711,0.000,2.767,9.585,0.168,0.000,0.000,0.000,0.000,6,-0.002,0.009,780,1034,1247,921,2.838,9.430
359,0.000,-2.472,20.028,-0.005,2.879,9.444,-0.076,-2.867,14.711,0.000,2.714,9.621,0.351,0.000,0.000,0.000,0.000,6,-0.001,0.010,780,1034,1248,919,2.838,9.430
360,0.000,-2.472,20.028,-0.005,2.860,9.470,-0.076,-2.867,14.711,0.000,2.721,9.655,0.351,0.000,0.000,0.000,0.000,6,-0.001,0.010,780,1034,1247,918,2.838,9.339
361,0.000,-2.472,20.028,0.005,2.879,9.454,0.046,-2.867,14.711,0.000,2.728,9.640,0.198,0.000,0.000,0.000,0.000,6,-0.001,0.010,779,1034,1247,919,2.838,9.339
362,0.000,-2.472,20.028,0.016,2.922,9.444,0.076,-2.846,14.711,-0.005,2.735,9.612,0.168,0.000,0.000,0.000,0.000,6,-0.001,0.010,780,1034,1247,920,2.838,9.339
363,0.000,-2.472,20.028,-0.005,2.884,9.463,0.076,-2.846,14.711,0.000,2.740,9.624,0.198,0.000,0.000,0.000,0.000,6,-0.001,0.010,780,1034,1247,920,2.838,9.430
364,0.000,-2.472,20.028,0.005,2.865,9.490,0.000,-2.846,14.711,0.000,2.755,9.645,0.320,0.000,0.000,0.000,0.000,6,-0.001,0.010,780,1034,1247,920,2.838,9.430
365,0.000,-2.472,20.028,0.000,2.874,9.475,0.000,-2.846,14.711,0.000,2.709,9.624,0.229,0.000,0.000,0.000,0.000,6,-0.001,0.010,780,1033,1247,920,2.838,9.430
366,0.000,-2.472,20.028,0.005,2.841,9.446,0.015,-2.846,14.711,0.005,2.747,9.595,0.229,0.000,0.000,0.000,0.000,6,-0.001,0.010,780,1033,1247,919,2.838,9.430
367,0.000,-2.472,20.028,-0.016,2.846,9.442,0.076,-2.824,14.711,0.000,2.774,9.583,0.351,0.000,0.000,0.000,0.000,6,-0.001,0.010,780,1033,1247,920,2.838,9.430
368,0.000,-2.472,20.028,0.000,2.891,9.463,0.107,-2.824,14.711,0.000,2.769,9.600,0.351,0.000,0.000,0.000,0.000,6,-0.001,0.010,780,1033,1247,920,2.838,9.430
369,0.000,-2.494,20.028,0.000,2.886,9.478,0.137,-2.802,14.711,-0.016,2.731,9.621,0.473,0.000,0.000,0.000,0.000,6,-0.001,0.010,780,1033,1247,920,2.838,9.430
370,0.000,-2.494,20.028,0.000,2.869,9.442,0.137,-2.802,14.711,0.016,2.697,9.624,0.473,0.000,0.000,0.000,0.000,6,-0.001,0.010,780,1033,1247,920,2.838,9.430
371,0.000,-2.494,20.028,0.000,2.872,9.420,0.168,-2.802,14.711,0.000,2.721,9.616,0.656,0.000,0.000,0.000,0.000,6,-0.001,0.010,780,1033,1247,920,2.838,9.430
372,0.000,-2.494,20.028,0.000,2.838,9.466,0.168,-2.802,14.711,0.005,2.728,9.612,0.504,0.000,0.000,0.000,0.000,6,-0.001,0.010,781,1033,1247,920,2.838,9.430
373,0.000,-2.494,20.028,-0.005,2.836,9.502,0.168,-2.802,14.711,0.000,2.750,9.616,0.290,0.000,0.000,0.000,0.000,6,-0.001,0.010,780,1032,1247,920,2.838,9.430
374,0.000,-2.494,20.028,0.005,2.853,9.456,0.000,-2.802,14.711,0.005,2.745,9.616,0.381,0.000,0.000,0.000,0.000,6,-0.001,0.010,780,1033,1248,920,2.838,9.430
375,0.000,-2.494,20.028,-0.016,2.874,9.430,0.015,-2.780,14.711,0.000,2.731,9.645,0.443,0.000,0.000,0.000,0.000,6,-0.001,0.010,780,1032,1247,921,2.838,9.339
376,0.000,-2.516,20.028,-0.005,2.822,9.485,0.259,-2.780,14.711,0.000,2.733,9.631,0.473,0.000,0.000,0.000,0.000,6,-0.001,0.010,780,1032,1247,920,2.838,9.430
377,0.000,-2.516,20.028,-0.005,2.879,9.506,0.351,-2.780,14.711,0.000,2.757,9.602,0.595,0.000,0.000,0.000,0.000,6,-0.001,0.010,780,1032,1247,921,2.747,9.430
378,0.000,-2.516,20.028,-0.016,2.891,9.516,0.320,-2.780,14.711,0.005,2.781,9.607,0.473,0.000,0.000,0.000,0.000,6,-0.001,0.009,781,1032,1247,921,2.838,9.430
379,0.000,-2.516,20.028,0.016,2.865,9.480,0.320,-2.758,14.711,0.000,2.764,9.612,0.412,0.000,0.000,0.000,0.000,6,-0.001,0.009,780,1032,1248,920,2.838,9.430
380,0.000,-2.516,20.028,0.000,2.905,9.468,0.198,-2.758,14.711,0.000,2.771,9.640,0.443,0.000,0.000,0.000,0.000,6,-0.001,0.009,780,1032,1248,921,2.747,9.430
381,0.000,-2.516,20.028,0.000,2.896,9.446,0.229,-2.758,14.711,0.000,2.793,9.626,0.565,0.000,0.000,0.000,0.000,6,-0.001,0.009,780,1032,1247,920,2.838,9.430
382,0.000,-2.516,20.028,-0.016,2.867,9.444,0.320,-2.736,14.711,-0.005,2.779,9.609,0.687,0.000,0.000,0.000,0.000,6,-0.001,0.010,780,1032,1247,921,2.838,9.430
383,0.000,-2.516,20.028,-0.005,2.872,9.456,0.229,-2.736,14.711,0.000,2.750,9.628,0.595,0.000,0.000,0.000,0.000,6,-0.001,0.009,780,1032,1248,921,2.838,9.430
384,0.000,-2.516,20.028,0.000,2.836,9.420,0.351,-2.736,14.711,0.000,2.745,9.626,0.534,0.000,0.000,0.000,0.000,6,-0.001,0.009,780,1031,1247,921,2.838,9.430
385,0.000,-2.538,20.028,0.005,2.762,9.449,0.412,-2.736,14.711,0.000,2.740,9.595,0.473,0.000,0.000,0.000,0.000,6,-0.001,0.009,780,1032,1247,921,2.838,9.430
386,0.000,-2.538,20.028,0.005,2.759,9.454,0.381,-2.736,14.711,0.000,2.752,9.590,0.595,0.000,0.000,0.000,0.000,6,-0.001,0.010,780,1031,1247,921,2.838,9.430
387,0.000,-2.538,20.028,0.000,2.838,9.425,0.198,-2.714,14.711,-0.005,2.783,9.595,0.656,0.000,0.000,0.000,0.000,6,-0.001,0.009,780,1031,1249,921,2.838,9.430
388,0.000,-2.560,20.028,0.000,2.860,9.458,0.381,-2.714,14.711,0.000,2.769,9.609,0.687,0.000,0.000,0.000,0.000,6,-0.001,0.009,780,1031,1248,921,2.747,9.339
389,0.000,-2.560,20.028,-0.005,2.822,9.475,0.595,-2.714,14.711,-0.016,2.745,9.614,0.595,0.000,0.000,0.000,0.000,6,-0.001,0.009,780,1031,1247,922,2.747,9.430
390,0.000,-2.560,20.028,-0.005,2.793,9.430,0.473,-2.692,14.711,0.000,2.767,9.628,0.656,0.000,0.000,0.000,0.000,6,-0.001,0.009,781,1031,1248,921,2.747,9.430
391,0.000,-2.582,20.028,-0.005,2.800,9.444,0.412,-2.692,14.711,-0.016,2.781,9.621,0.381,0.000,0.000,0.000,0.000,6,-0.001,0.009,780,1031,1247,920,2.838,9.339
392,0.000,-2.582,20.028,0.000,2.805,9.446,0.443,-2.692,14.711,-0.016,2.781,9.590,0.412,0.000,0.000,0.000,0.000,6,-0.001,0.009,780,1030,1247,921,2.838,9.430
393,0.000,-2.582,20.028,0.000,2.802,9.418,0.534,-2.692,14.711,0.005,2.769,9.621,0.687,0.000,0.000,0.000,0.000,6,-0.001,0.009,780,1031,1247,922,2.747,9.430
394,0.000,-2.582,20.028,0.005,2.824,9.432,0.412,-2.670,14.711,0.000,2.795,9.624,0.778,0.000,0.000,0.000,0.000,6,-0.001,0.009,780,1030,1247,920,2.747,9.430
395,0.000,-2.604,20.028,-0.005,2.793,9.415,0.443,-2.670,14.711,-0.005,2.831,9.597,0.809,0.000,0.000,0.000,0.000,6,-0.001,0.009,779,1030,1248,920,2.747,9.430
396,0.000,-2.604,20.028,0.000,2.802,9.437,0.534,-2.648,14.711,0.005,2.786,9.614,0.656,0.000,0.000,0.000,0.000,6,-0.001,0.009,780,1030,1247,922,2.747,9.430
397,0.000,-2.604,20.028,0.016,2.858,9.494,0.534,-2.648,14.711,0.016,2.783,9.660,0.504,0.000,0.000,0.000,0.000,6,-0.001,0.010,780,1030,1248,922,2.747,9.339
398,0.000,-2.604,20.028,0.005,2.822,9.461,0.412,-2.648,14.711,0.000,2.826,9.638,0.687,0.000,0.000,0.000,0.000,6,-0.001,0.009,780,1030,1248,921,2.747,9.430
399,0.000,-2.626,20.028,0.005,2.795,9.439,0.443,-2.626,14.711,0.000,2.817,9.583,0.626,0.000,0.000,0.000,0.000,6,-0.001,0.010,780,1030,1248,920,2.747,9.339
400,0.000,-2.626,20.028,-0.005,2.783,9.439,0.473,-2.626,14.711,0.016,2.793,9.600,0.565,0.000,0.000,0.000,0.000,6,-0.001,0.009,779,1029,1247,920,2.747,9.430
401,0.000,-2.626,20.028,0.005,2.783,9.415,0.565,-2.626,14.711,0.000,2.798,9.631,0.534,0.000,0.000,0.000,0.000,6,-0.002,0.009,780,1030,1247,922,2.838,9.430
402,0.000,-2.648,20.028,0.005,2.805,9.473,0.565,-2.604,14.711,0.000,2.807,9.648,0.534,0.000,0.000,0.000,0.000,6,-0.001,0.009,780,1029,1248,922,2.747,9.430
403,0.000,-2.648,20.028,0.000,2.774,9.506,0.626,-2.604,14.711,0.000,2.810,9.640,0.687,0.000,0.000,0.000,0.000,6,-0.001,0.009,780,1029,1248,921,2.747,9.430
404,0.000,-2.670,20.028,0.005,2.790,9.473,0.626,-2.604,14.711,0.005,2.805,9.616,0.900,0.000,0.000,0.000,0.000,6,-0.001,0.010,780,1029,1247,921,2.747,9.430
405,0.000,-2.670,20.028,0.005,2.817,9.454,0.534,-2.582,14.711,-0.005,2.781,9.648,0.839,0.000,0.000,0.000,0.000,6,-0.001,0.010,780,1029,1247,921,2.747,9.339
406,0.000,-2.670,20.028,-0.005,2.767,9.444,0.504,-2.582,14.711,0.000,2.781,9.604,0.717,0.000,0.000,0.000,0.000,6,-0.001,0.009,780,1029,1248,921,2.747,9.430
407,0.000,-2.692,20.028,0.005,2.747,9.415,0.595,-2.582,14.711,0.005,2.800,9.590,0.626,0.000,0.000,0.000,0.000,6,-0.001,0.009,780,1029,1247,921,2.747,9.430
408,0.000,-2.692,20.028,0.000,2.788,9.420,0.565,-2.582,14.711,-0.005,2.805,9.631,0.626,0.000,0.000,0.000,0.000,6,-0.001,0.010,780,1028,1247,921,2.747,9.430
409,0.000,-2.692,20.028,0.016,2.786,9.449,0.443,-2.560,14.711,-0.005,2.848,9.643,0.931,0.000,0.000,0.000,0.000,6,-0.002,0.010,780,1028,1247,922,2.747,9.430
410,0.000,-2.714,20.028,-0.005,2.779,9.434,0.381,-2.560,14.711,0.000,2.869,9.619,0.839,0.000,0.000,0.000,0.000,6,-0.002,0.010,780,1029,1247,922,2.747,9.430
411,0.000,-2.714,20.028,0.005,2.781,9.456,0.351,-2.538,14.711,0.000,2.814,9.590,0.809,0.000,0.000,0.000,0.000,6,-0.001,0.009,780,1028,1247,921,2.747,9.339
412,0.000,-2.714,20.028,0.000,2.822,9.434,0.504,-2.538,14.711,0.016,2.829,9.604,0.870,0.000,0.000,0.000,0.000,6,-0.001,0.010,780,1028,1248,921,2.747,9.339
413,0.000,-2.714,20.028,0.000,2.771,9.444,0.595,-2.516,14.711,0.005,2.846,9.612,0.717,0.000,0.000,0.000,0.000,6,-0.002,0.010,781,1028,1248,921,2.747,9.430
414,0.000,-2.736,20.028,0.000,2.723,9.449,0.717,-2.516,14.711,0.000,2.810,9.595,0.717,0.000,0.000,0.000,0.000,6,-0.001,0.010,780,1028,1248,921,2.747,9.430
415,0.000,-2.736,20.028,-0.005,2.743,9.396,0.626,-2.516,14.711,-0.005,2.807,9.619,0.717,0.000,0.000,0.000,0.000,6,-0.002,0.010,780,1028,1247,920,2.747,9.430
416,0.000,-2.758,20.028,0.000,2.774,9.394,0.626,-2.494,14.711,0.005,2.798,9.621,0.809,0.000,0.000,0.000,0.000,6,-0.002,0.010,780,1028,1247,921,2.747,9.430
417,0.000,-2.758,20.028,0.000,2.800,9.423,0.626,-2.494,14.711,0.000,2.812,9.595,0.778,0.000,0.000,0.000,0.000,6,-0.001,0.009,781,1028,1248,921,2.747,9.430
418,0.000,-2.758,20.028,0.000,2.779,9.430,0.504,-2.494,14.711,0.005,2.834,9.547,0.870,0.000,0.000,0.000,0.000,6,-0.002,0.010,780,1028,1248,921,2.655,9.430
419,0.000,-2.758,20.028,-0.016,2.810,9.415,0.473,-2.472,14.711,-0.016,2.817,9.569,0.931,0.000,0.000,0.000,0.000,6,-0.002,0.009,780,1028,1249,920,2.655,9.339
420,0.000,-2.758,20.028,0.000,2.802,9.437,0.504,-2.472,14.711,0.000,2.841,9.612,0.839,0.000,0.000,0.000,0.000,6,-0.001,0.010,780,1027,1247,920,2.747,9.339
421,0.000,-2.780,20.028,-0.005,2.750,9.478,0.534,-2.472,14.711,0.005,2.838,9.616,0.565,0.000,0.000,0.000,0.000,6,-0.002,0.010,780,1027,1247,921,2.747,9.339
422,0.000,-2.780,20.028,0.000,2.781,9.444,0.687,-2.450,14.711,0.005,2.807,9.609,0.656,0.000,0.000,0.000,0.000,6,-0.002,0.010,781,1027,1248,920,2.747,9.430
423,0.000,-2.780,20.028,0.000,2.824,9.401,0.748,-2.450,14.711,0.016,2.802,9.619,0.778,0.000,0.000,0.000,0.000,6,-0.002,0.009,780,1027,1248,921,2.747,9.339
424,0.000,-2.780,20.028,0.000,2.834,9.430,0.717,-2.450,14.711,-0.005,2.788,9.633,0.748,0.000,0.000,0.000,0.000,6,-0.002,0.009,780,1027,1247,921,2.747,9.430
425,0.000,-2.780,20.028,0.000,2.812,9.456,0.565,-2.450,14.711,0.000,2.805,9.607,0.900,0.000,0.000,0.000,0.000,6,-0.002,0.009,780,1027,1248,920,2.747,9.430
426,0.000,-2.802,20.028,0.000,2.769,9.434,0.626,-2.428,14.711,0.000,2.841,9.590,0.931,0.000,0.000,0.000,0.000,6,-0.002,0.009,780,1027,1249,921,2.747,9.430
427,0.000,-2.802,20.028,0.016,2.723,9.425,0.687,-2.428,14.711,-0.005,2.822,9.614,0.870,0.000,0.000,0.000,0.000,6,-0.002,0.010,780,1027,1248,920,2.747,9.339
428,0.000,-2.802,20.028,0.000,2.731,9.458,0.748,-2.428,14.711,0.000,2.822,9.621,0.778,0.000,0.000,0.000,0.000,6,-0.001,0.009,780,1027,1246,922,2.747,9.430
429,0.000,-2.824,20.028,0.000,2.757,9.463,0.748,-2.428,14.711,0.005,2.800,9.593,0.839,0.000,0.000,0.000,0.000,6,-0.001,0.009,782,1026,1247,921,2.747,9.430
430,0.000,-2.824,20.028,0.016,2.757,9.432,0.626,-2.406,14.711,0.000,2.783,9.595,0.931,0.000,0.000,0.000,0.000,6,-0.002,0.009,780,1027,1248,919,2.747,9.430
431,0.000,-2.846,20.028,0.000,2.759,9.406,0.534,-2.406,14.711,-0.005,2.814,9.604,0.839,0.000,0.000,0.000,0.000,6,-0.002,0.009,780,1027,1247,920,2.655,9.339
432,0.000,-2.846,20.028,0.000,2.779,9.406,0.778,-2.406,14.711,0.000,2.793,9.614,0.778,0.000,0.000,0.000,0.000,6,-0.002,0.009,781,1027,1248,921,2.655,9.430
433,0.000,-2.846,20.028,-0.005,2.774,9.432,0.809,-2.406,14.711,0.000,2.812,9.631,0.839,0.000,0.000,0.000,0.000,6,-0.002,0.010,780,1026,1247,920,2.747,9.430
434,0.000,-2.846,20.028,0.000,2.762,9.442,0.687,-2.406,14.711,0.000,2.853,9.640,0.809,0.000,0.000,0.000,0.000,6,-0.001,0.009,780,1026,1248,919,2.747,9.430
435,0.000,-2.867,20.028,0.000,2.743,9.449,0.656,-2.384,14.711,-0.005,2.831,9.621,0.870,0.000,0.000,0.000,0.000,6,-0.001,0.009,780,1025,1247,921,2.747,9.339
436,0.000,-2.867,20.028,0.000,2.788,9.446,0.656,-2.384,14.711,0.000,2.846,9.626,0.931,0.000,0.000,0.000,0.000,6,-0.001,0.010,780,1026,1248,921,2.747,9.339
437,0.000,-2.867,20.028,-0.005,2.817,9.413,0.809,-2.384,14.711,0.000,2.826,9.640,0.931,0.000,0.000,0.000,0.000,6,-0.002,0.009,780,1026,1248,921,2.747,9.430
438,0.000,-2.867,20.028,-0.005,2.743,9.387,0.778,-2.384,14.711,0.005,2.790,9.621,0.931,0.000,0.000,0.000,0.000,6,-0.001,0.009,781,1026,1247,919,2.747,9.430
439,0.000,-2.867,20.028,-0.005,2.721,9.427,0.687,-2.384,14.711,0.000,2.790,9.614,0.900,0.000,0.000,0.000,0.000,6,-0.001,0.010,779,1026,1247,920,2.655,9.430
440,0.000,-2.889,20.028,-0.005,2.745,9.430,0.778,-2.362,14.711,0.000,2.795,9.616,0.809,0.000,0.000,0.000,0.000,6,-0.002,0.010,780,1026,1247,920,2.747,9.430
441,0.000,-2.889,20.028,0.005,2.726,9.399,0.900,-2.362,14.711,0.016,2.834,9.624,0.809,0.000,0.000,0.000,0.000,6,-0.002,0.010,780,1025,1247,920,2.747,9.339
442,0.000,-2.911,20.028,0.000,2.721,9.415,0.839,-2.362,14.711,0.005,2.814,9.631,0.748,0.000,0.000,0.000,0.000,6,-0.001,0.010,780,1026,1248,920,2.655,9.339
443,0.000,-2.911,20.028,0.000,2.702,9.427,0.748,-2.362,14.711,0.000,2.786,9.648,0.931,0.000,0.000,0.000,0.000,6,-0.002,0.010,781,1026,1247,920,2.655,9.339
444,0.000,-2.933,20.028,-0.005,2.692,9.446,0.717,-2.362,14.711,0.000,2.822,9.621,0.992,0.000,0.000,0.000,0.000,6,-0.002,0.010,780,1025,1247,920,2.655,9.430
445,0.000,-2.933,20.028,0.005,2.707,9.442,0.839,-2.362,14.711,0.000,2.793,9.628,0.900,0.000,0.000,0.000,0.000,6,-0.001,0.010,780,1025,1248,921,2.655,9.339
446,0.000,-2.955,20.028,-0.005,2.752,9.432,0.931,-2.362,14.711,0.016,2.795,9.607,0.931,0.000,0.000,0.000,0.000,6,-0.001,0.010,780,1025,1247,920,2.655,9.339
447,0.000,-2.955,20.028,0.000,2.723,9.451,0.870,-2.340,14.711,-0.005,2.817,9.576,0.870,0.000,0.000,0.000,0.000,6,-0.001,0.010,780,1024,1248,920,2.655,9.339
448,0.000,-2.955,20.028,0.000,2.745,9.456,0.687,-2.340,14.711,0.005,2.817,9.604,0.717,0.000,0.000,0.000,0.000,6,-0.002,0.010,780,1025,1247,920,2.655,9.430
449,0.000,-2.977,20.028,0.000,2.738,9.444,0.717,-2.340,14.711,0.000,2.819,9.621,0.809,0.000,0.000,0.000,0.000,6,-0.002,0.009,780,1024,1247,920,2.655,9.430
450,0.000,-2.977,20.028,0.000,2.728,9.418,0.870,-2.340,14.711,-0.005,2.831,9.593,0.961,0.000,0.000,0.000,0.000,6,-0.001,0.010,780,1025,1247,920,2.747,9.430
451,0.000,-2.977,20.028,-0.005,2.726,9.408,0.839,-2.340,14.711,0.000,2.817,9.600,1.053,0.000,0.000,0.000,0.000,6,-0.001,0.010,780,1024,1247,920,2.655,9.430
452,0.000,-2.999,20.028,0.000,2.702,9.427,0.626,-2.340,14.711,-0.005,2.781,9.583,0.961,0.000,0.000,0.000,0.000,6,-0.002,0.010,780,1025,1248,920,2.655,9.430
453,0.000,-2.999,20.028,0.005,2.728,9.442,0.748,-2.318,14.711,0.005,2.810,9.593,0.900,0.000,0.000,0.000,0.000,6,-0.001,0.010,780,1025,1248,920,2.655,9.430
454,0.000,-2.999,20.028,0.000,2.745,9.454,0.870,-2.318,14.711,0.005,2.814,9.633,0.900,0.000,0.000,0.000,0.000,6,-0.001,0.010,780,1024,1247,920,2.655,9.339
455,0.000,-3.021,20.028,0.005,2.721,9.451,0.717,-2.318,14.711,-0.005,2.843,9.643,0.992,0.000,0.000,0.000,0.000,6,-0.001,0.010,780,1024,1247,920,2.655,9.339
456,0.000,-3.021,20.028,0.005,2.702,9.401,0.717,-2.318,14.711,-0.016,2.843,9.664,0.870,0.000,0.000,0.000,0.000,6,-0.002,0.010,782,1024,1247,921,2.655,9.339
457,0.000,-3.021,20.028,0.000,2.700,9.391,0.778,-2.318,14.711,-0.016,2.779,9.660,0.870,0.000,0.000,0.000,0.000,6,-0.001,0.011,780,1024,1248,921,2.655,9.430
458,0.000,-3.043,20.028,-0.005,2.700,9.413,0.656,-2.318,14.711,-0.005,2.790,9.645,0.900,0.000,0.000,0.000,0.000,6,-0.001,0.010,780,1024,1248,920,2.655,9.430
459,0.000,-3.043,20.028,0.000,2.735,9.437,0.717,-2.318,14.711,0.000,2.790,9.655,1.053,0.000,0.000,0.000,0.000,6,-0.001,0.012,781,1024,1247,921,2.655,9.430
460,0.000,-3.043,20.028,-0.016,2.745,9.437,0.839,-2.318,14.711,-0.005,2.814,9.645,1.083,0.000,0.000,0.000,0.000,6,-0.001,0.012,780,1024,1247,921,2.655,9.339
461,0.000,-3.065,20.028,-0.005,2.723,9.461,0.809,-2.318,14.711,-0.016,2.800,9.650,0.870,0.000,0.000,0.000,0.000,6,-0.001,0.013,781,1024,1248,920,2.655,9.339
462,0.000,-3.065,20.028,-0.005,2.719,9.463,0.839,-2.318,14.711,0.000,2.817,9.652,0.717,0.000,-0.001,0.000,0.000,6,-0.001,0.013,781,1024,1247,921,2.655,9.339
463,0.000,-3.065,20.028,-0.005,2.714,9.413,0.809,-2.318,14.711,0.027,2.850,9.631,0.687,0.000,-0.004,0.000,0.000,6,-0.001,0.014,780,1023,1247,921,2.655,9.430
464,0.000,-3.087,20.028,0.000,2.690,9.408,0.961,-2.296,14.711,0.005,2.850,9.609,0.809,0.000,-0.009,0.000,0.000,6,-0.001,0.014,781,1023,1247,921,2.655,9.430
465,0.000,-3.087,20.028,0.000,2.683,9.413,0.900,-2.296,14.711,0.000,2.858,9.614,0.961,0.000,-0.013,0.000,0.000,6,-0.001,0.014,780,1023,1248,921,2.655,9.430
466,0.000,-3.087,20.028,-0.005,2.740,9.408,0.748,-2.296,14.711,-0.016,2.819,9.626,1.053,0.000,-0.018,0.000,0.000,6,-0.001,0.014,780,1023,1247,920,2.655,9.430
467,0.000,-3.087,20.028,-0.005,2.762,9.437,0.839,-2.296,14.711,-0.005,2.807,9.607,0.961,0.000,-0.022,0.000,0.000,6,-0.001,0.015,780,1023,1246,922,2.655,9.339
468,0.000,-3.109,20.028,-0.005,2.716,9.427,0.870,-2.296,14.711,-0.005,2.822,9.626,0.931,0.027,-0.027,0.000,0.000,6,-0.001,0.015,782,1023,1247,921,2.655,9.339
469,0.000,-3.109,20.028,-0.005,2.709,9.425,0.809,-2.274,14.711,-0.027,2.807,9.636,0.931,0.032,-0.032,0.000,0.000,6,-0.001,0.016,780,1023,1247,920,2.655,9.339
470,0.000,-3.109,20.028,0.000,2.752,9.418,0.778,-2.274,14.711,-0.016,2.795,9.633,1.053,0.037,-0.037,0.000,0.000,6,-0.001,0.016,780,1023,1247,921,2.655,9.339
471,0.000,-3.109,20.028,-0.005,2.790,9.411,0.839,-2.274,14.711,-0.016,2.855,9.621,1.114,0.043,-0.043,0.000,0.000,6,-0.001,0.015,781,1023,1248,922,2.747,9.430
472,0.000,-3.109,20.028,0.027,2.798,9.432,0.748,-2.274,14.711,-0.038,2.843,9.626,0.961,0.047,-0.047,0.000,0.000,6,-0.001,0.015,780,1023,1248,920,2.655,9.339
473,0.000,-3.109,20.028,0.016,2.771,9.406,0.931,-2.274,14.711,-0.038,2.793,9.655,0.870,0.051,-0.051,0.000,0.000,6,-0.001,0.015,780,1022,1247,920,2.655,9.339
474,0.000,-3.109,20.028,0.038,2.752,9.434,1.083,-2.274,14.711,-0.038,2.826,9.660,0.839,0.054,-0.054,0.000,0.000,6,-0.001,0.014,780,1022,1247,922,2.747,9.339
475,0.000,-3.109,20.028,0.038,2.726,9.444,1.022,-2.274,14.711,-0.038,2.807,9.650,1.053,0.056,-0.056,0.000,0.000,6,-0.001,0.014,780,1022,1247,923,2.747,9.339
476,0.000,-3.109,20.028,0.060,2.719,9.401,0.809,-2.274,14.711,-0.049,2.786,9.612,1.022,0.059,-0.059,0.000,0.000,6,-0.001,0.013,781,1023,1247,921,2.747,9.430
477,0.000,-3.109,20.028,0.038,2.755,9.423,0.809,-2.274,14.711,-0.038,2.810,9.593,0.870,0.060,-0.060,0.000,0.000,6,-0.001,0.013,780,1022,1247,919,2.747,9.339
478,0.000,-3.109,20.050,0.049,2.800,9.439,0.778,-2.274,14.711,-0.049,2.774,9.612,0.809,0.061,-0.061,0.000,0.000,6,-0.001,0.013,779,1022,1247,920,2.747,9.430
479,0.000,-3.109,20.050,0.049,2.860,9.437,1.053,-2.274,14.711,-0.038,2.728,9.602,0.839,0.061,-0.061,0.000,0.000,6,-0.001,0.012,781,1022,1247,922,2.655,9.430
480,0.000,-3.087,20.050,0.060,2.953,9.470,1.419,-2.296,14.711,-0.049,2.743,9.569,0.992,0.060,-0.060,0.000,0.000,6,-0.001,0.012,780,1022,1248,921,2.655,9.339
481,0.000,-3.087,20.050,0.049,2.692,9.415,1.511,-2.296,14.711,-0.049,2.805,9.554,1.114,0.060,-0.060,0.000,0.000,6,-0.001,0.011,781,1022,1248,921,2.747,9.339
482,0.000,-3.087,20.050,0.060,2.716,9.403,1.480,-2.274,14.711,-0.060,2.843,9.535,1.053,0.058,-0.058,0.000,0.000,6,-0.001,0.011,780,1022,1248,921,2.747,9.430
483,0.000,-3.087,20.050,0.060,2.802,9.449,1.389,-2.274,14.711,-0.060,2.862,9.557,1.053,0.056,-0.056,0.000,0.000,6,-0.001,0.010,780,1022,1247,921,2.838,9.430
484,0.000,-3.087,20.050,0.049,2.731,9.449,1.144,-2.274,14.711,-0.060,2.891,9.597,1.022,0.054,-0.054,0.000,0.000,6,-0.001,0.011,781,1022,1247,921,2.930,9.430
485,0.000,-3.109,20.050,0.060,2.719,9.463,1.144,-2.252,14.711,-0.038,2.841,9.607,0.900,0.052,-0.052,0.000,0.000,6,-0.001,0.010,781,1022,1247,921,2.655,9.339
486,0.000,-3.109,20.050,0.060,2.786,9.511,1.205,-2.252,14.711,-0.049,2.788,9.640,0.900,0.049,-0.049,0.000,0.000,6,-0.001,0.010,781,1021,1248,922,2.655,9.339
487,0.000,-3.109,20.050,0.027,2.795,9.478,1.389,-2.252,14.711,-0.049,2.822,9.585,0.961,0.047,-0.047,0.000,0.000,6,-0.002,0.010,781,1022,1247,922,2.747,9.430
488,0.000,-3.109,20.050,0.038,2.743,9.396,1.297,-2.252,14.711,-0.049,2.848,9.571,0.931,0.044,-0.044,0.000,0.000,6,-0.001,0.010,781,1022,1248,921,2.655,9.430
489,0.000,-3.109,20.050,0.049,2.752,9.413,1.144,-2.252,14.711,-0.038,2.867,9.561,1.022,0.042,-0.042,0.000,0.000,6,-0.001,0.010,781,1022,1248,922,2.655,9.430
490,0.000,-3.109,20.050,0.049,2.747,9.458,0.931,-2.252,14.711,-0.038,2.841,9.576,1.053,0.040,-0.040,0.000,0.000,6,-0.001,0.011,781,1021,1248,921,2.747,9.430
491,0.000,-3.109,20.050,0.049,2.714,9.430,0.931,-2.230,14.711,-0.027,2.807,9.600,1.083,0.039,-0.039,0.000,0.000,6,-0.001,0.011,781,1022,1248,921,2.747,9.430
492,0.000,-3.109,20.050,0.016,2.812,9.425,0.870,-2.230,14.711,-0.038,2.788,9.614,0.809,0.038,-0.038,0.000,0.000,6,-0.001,0.012,781,1021,1247,921,2.655,9.339
493,0.000,-3.109,20.050,0.038,2.834,9.437,1.144,-2.252,14.711,-0.016,2.774,9.559,0.778,0.039,-0.039,0.000,0.000,6,-0.001,0.013,780,1021,1248,921,2.747,9.339
494,0.000,-3.109,20.050,0.027,2.819,9.449,1.236,-2.252,14.711,-0.027,2.776,9.559,0.961,0.041,-0.041,0.000,0.000,6,-0.001,0.013,781,1021,1247,921,2.747,9.430
495,0.000,-3.109,20.050,0.016,2.872,9.442,1.175,-2.252,14.711,-0.038,2.767,9.583,1.053,0.042,-0.042,0.000,0.000,6,-0.001,0.013,782,1021,1247,921,2.655,9.430
496,0.000,-3.087,20.050,0.027,2.848,9.389,1.022,-2.252,14.711,-0.049,2.781,9.559,1.175,0.043,-0.043,0.000,0.000,6,-0.001,0.013,781,1021,1248,921,2.747,9.339
497,0.000,-3.087,20.050,0.005,2.781,9.384,0.839,-2.252,14.711,-0.038,2.800,9.566,0.992,0.044,-0.044,0.000,0.000,6,-0.001,0.013,781,1021,1248,922,2.747,9.430
498,0.000,-3.087,20.050,0.049,2.745,9.399,0.961,-2.252,14.711,-0.038,2.812,9.602,0.870,0.046,-0.046,0.000,0.000,6,-0.001,0.013,781,1021,1247,921,2.747,9.430
499,0.000,-3.087,20.050,0.038,2.795,9.377,1.022,-2.252,14.711,-0.016,2.824,9.619,0.900,0.047,-0.047,0.000,0.000,6,-0.001,0.014,781,1021,1247,920,2.838,9.430
500,0.000,-3.087,20.050,0.038,2.786,9.344,0.900,-2.230,14.711,-0.038,2.798,9.585,0.931,0.050,-0.050,0.000,0.000,6,-0.001,0.013,781,1021,1248,921,2.838,9.339
501,0.000,-3.087,20.050,0.038,2.767,9.372,0.809,-2.230,14.711,-0.038,2.776,9.564,0.748,0.051,-0.051,0.000,0.000,6,-0.001,0.014,781,1021,1248,921,2.747,9.339
502,0.000,-3.087,20.050,0.038,2.822,9.401,0.931,-2.252,14.711,-0.038,2.740,9.576,0.839,0.054,-0.054,0.000,0.000,6,-0.001,0.013,780,1021,1247,921,2.655,9.339
503,0.000,-3.065,20.050,0.038,2.822,9.420,1.022,-2.252,14.711,-0.027,2.745,9.566,0.870,0.054,-0.054,0.000,0.000,6,-0.001,0.013,781,1021,1248,920,2.747,9.339
504,0.000,-3.065,20.050,0.038,2.783,9.446,0.931,-2.252,14.711,-0.038,2.800,9.559,0.992,0.055,-0.055,0.000,0.000,6,-0.001,0.013,781,1021,1249,921,2.747,9.339
505,0.000,-3.065,20.050,0.049,2.719,9.427,0.931,-2.252,14.711,-0.049,2.802,9.561,0.870,0.055,-0.055,0.000,0.000,6,-0.001,0.013,781,1020,1248,920,2.747,9.339
506,0.000,-3.087,20.050,0.038,2.702,9.413,0.931,-2.252,14.711,-0.027,2.781,9.547,0.748,0.057,-0.057,0.000,0.000,6,-0.001,0.013,781,1021,1247,921,2.747,9.339
507,0.000,-3.087,20.050,0.038,2.680,9.430,0.717,-2.252,14.711,-0.038,2.764,9.573,0.778,0.058,-0.058,0.000,0.000,6,-0.002,0.014,783,1020,1247,921,2.747,9.339
508,0.000,-3.109,20.050,0.038,2.707,9.456,0.565,-2.252,14.711,-0.038,2.767,9.585,0.778,0.060,-0.060,0.000,0.000,6,-0.001,0.014,781,1020,1249,920,2.747,9.430
509,0.000,-3.109,20.050,0.049,2.822,9.478,0.504,-2.252,14.711,-0.060,2.795,9.542,0.748,0.061,-0.061,0.000,0.000,6,-0.001,0.014,781,1021,1248,920,2.655,9.339
510,0.000,-3.087,20.050,0.038,2.817,9.470,0.595,-2.252,14.711,-0.060,2.802,9.549,0.870,0.063,-0.063,0.000,0.000,6,-0.001,0.015,781,1021,1248,921,2.655,9.339
511,0.000,-3.087,20.050,0.038,2.769,9.425,0.565,-2.252,14.711,-0.060,2.802,9.604,0.900,0.065,-0.065,0.000,0.000,6,-0.001,0.015,781,1021,1247,919,2.655,9.430
512,0.000,-3.087,20.050,0.060,2.795,9.473,0.595,-2.252,14.711,-0.049,2.834,9.621,0.839,0.068,-0.068,0.000,0.000,6,-0.001,0.015,780,1020,1248,920,2.655,9.430
513,0.000,-3.087,20.050,0.027,2.774,9.494,0.778,-2.230,14.711,-0.049,2.994,9.590,1.053,0.071,-0.071,0.000,0.000,6,-0.001,0.016,782,1020,1248,922,2.747,9.430
514,0.000,-3.109,20.050,0.049,2.747,9.451,0.748,-2.208,14.711,-0.038,2.925,9.537,1.175,0.075,-0.075,0.000,0.000,6,-0.002,0.016,782,1020,1248,921,2.747,9.430
515,0.000,-3.109,20.050,0.060,2.728,9.461,0.687,-2.208,14.711,-0.071,2.654,9.557,1.144,0.078,-0.078,0.000,0.000,6,-0.001,0.016,781,1020,1248,919,2.747,9.339
516,0.000,-3.109,20.050,0.060,2.810,9.451,0.687,-2.230,14.711,-0.060,2.642,9.604,0.992,0.081,-0.081,0.000,0.000,6,-0.001,0.016,782,1020,1248,918,2.747,9.430
517,0.000,-3.109,20.050,0.071,2.874,9.473,0.809,-2.252,14.711,-0.071,2.711,9.645,0.900,0.085,-0.085,0.000,0.000,6,-0.001,0.015,780,1020,1248,919,2.747,9.430
518,0.000,-3.087,20.050,0.060,2.824,9.499,0.778,-2.252,14.711,-0.060,2.779,9.691,0.992,0.087,-0.087,0.000,0.000,6,-0.002,0.015,782,1020,1248,919,2.747,9.430
519,0.000,-3.087,20.050,0.082,2.805,9.521,0.717,-2.252,14.711,-0.071,2.795,9.707,0.870,0.088,-0.088,0.000,0.000,6,-0.001,0.015,782,1020,1248,919,2.655,9.430
520,0.000,-3.087,20.050,0.071,2.831,9.492,0.839,-2.252,14.711,-0.060,2.783,9.674,0.839,0.090,-0.090,0.000,0.000,6,-0.001,0.014,782,1020,1248,919,2.747,9.430
521,0.000,-3.087,20.050,0.071,2.781,9.485,0.809,-2.252,14.689,-0.082,2.819,9.619,0.839,0.090,-0.090,0.000,0.000,6,-0.001,0.013,782,1020,1248,919,2.838,9.430
522,0.000,-3.087,20.050,0.082,2.738,9.506,0.778,-2.252,14.689,-0.049,2.893,9.602,0.839,0.089,-0.089,0.000,0.000,6,-0.001,0.013,782,1020,1248,919,2.747,9.430
523,0.000,-3.087,20.050,0.071,2.795,9.499,0.778,-2.252,14.689,-0.082,2.913,9.607,0.870,0.089,-0.089,0.000,0.000,6,-0.001,0.013,782,1020,1248,919,2.747,9.522
524,0.000,-3.087,20.050,0.071,2.790,9.420,0.778,-2.230,14.689,-0.093,2.877,9.645,0.870,0.087,-0.087,0.000,0.000,6,-0.001,0.012,782,1020,1248,918,2.747,9.430
525,0.000,-3.087,20.050,0.082,2.781,9.387,0.748,-2.230,14.689,-0.071,2.862,9.667,0.839,0.086,-0.086,0.000,0.000,6,-0.001,0.012,782,1019,1248,918,2.747,9.430
526,0.000,-3.087,20.050,0.082,2.788,9.384,0.748,-2.230,14.689,-0.071,2.819,9.660,0.870,0.084,-0.084,0.000,0.000,6,-0.002,0.011,782,1020,1248,918,2.655,9.430
527,0.000,-3.087,20.050,0.082,2.781,9.415,0.778,-2.230,14.689,-0.071,2.838,9.662,0.778,0.081,-0.081,0.000,0.000,6,-0.001,0.011,782,1020,1248,918,2.747,9.430
528,0.000,-3.087,20.050,0.071,2.788,9.466,0.931,-2.230,14.689,-0.093,2.843,9.657,0.809,0.077,-0.077,0.000,0.000,6,-0.001,0.010,782,1020,1248,918,2.747,9.339
529,0.000,-3.087,20.050,0.071,2.788,9.454,0.992,-2.230,14.689,-0.060,2.822,9.700,0.931,0.074,-0.074,0.000,0.000,6,-0.001,0.010,782,1019,1249,917,2.747,9.339
530,0.000,-3.087,20.050,0.071,2.793,9.468,1.053,-2.230,14.689,-0.060,2.819,9.712,0.992,0.070,-0.070,0.000,0.000,6,-0.001,0.010,782,1020,1248,918,2.747,9.339
531,0.000,-3.087,20.050,0.071,2.745,9.468,0.961,-2.230,14.689,-0.071,2.865,9.693,0.961,0.066,-0.066,0.000,0.000,6,-0.001,0.009,782,1020,1248,918,2.747,9.339
532,0.000,-3.087,20.050,0.060,2.733,9.446,0.870,-2.230,14.689,-0.082,2.860,9.686,0.931,0.062,-0.062,0.000,0.000,6,-0.001,0.009,782,1019,1248,918,2.747,9.430
533,0.000,-3.087,20.050,0.071,2.752,9.415,0.931,-2.230,14.689,-0.071,2.862,9.679,0.961,0.058,-0.058,0.000,0.000,6,-0.001,0.010,782,1020,1249,918,2.747,9.430
534,0.000,-3.087,20.050,0.049,2.762,9.418,0.992,-2.208,14.689,-0.038,2.872,9.669,1.053,0.054,-0.054,0.000,0.000,6,-0.001,0.010,784,1020,1248,917,2.747,9.430
535,0.000,-3.087,20.050,0.060,2.810,9.446,0.870,-2.208,14.689,-0.060,2.850,9.688,1.144,0.052,-0.052,0.000,0.000,6,-0.001,0.011,782,1020,1249,918,2.655,9.430
536,0.000,-3.087,20.050,0.060,2.800,9.420,0.748,-2.208,14.689,-0.060,2.853,9.695,1.205,0.051,-0.051,0.000,0.000,6,-0.001,0.011,782,1019,1249,917,2.655,9.430
537,0.000,-3.087,20.050,0.038,2.779,9.437,0.839,-2.208,14.689,-0.049,2.891,9.693,1.266,0.049,-0.049,0.000,0.000,6,-0.001,0.012,782,1020,1249,917,2.747,9.339
538,0.000,-3.087,20.050,0.049,2.762,9.442,0.870,-2.208,14.689,-0.038,2.886,9.693,1.114,0.049,-0.049,0.000,0.000,6,-0.001,0.013,783,1020,1248,918,2.747,9.339
539,0.000,-3.087,20.050,0.016,2.750,9.430,0.778,-2.208,14.689,-0.049,2.881,9.688,1.175,0.050,-0.050,0.000,0.000,6,-0.001,0.013,783,1019,1249,917,2.747,9.430
540,0.000,-3.087,20.050,0.027,2.733,9.425,0.809,-2.186,14.689,-0.027,2.879,9.686,1.266,0.052,-0.052,0.000,0.000,6,-0.001,0.013,783,1019,1249,917,2.747,9.339
541,0.000,-3.109,20.050,0.027,2.697,9.427,0.717,-2.186,14.689,-0.038,2.858,9.693,1.144,0.053,-0.053,0.000,0.000,6,-0.001,0.014,782,1019,1248,917,2.747,9.430
542,0.000,-3.109,20.050,0.049,2.721,9.468,0.626,-2.186,14.689,-0.027,2.802,9.739,1.053,0.054,-0.054,0.000,0.000,6,-0.001,0.014,782,1019,1249,917,2.747,9.430
543,0.000,-3.109,20.050,0.038,2.781,9.485,0.626,-2.186,14.689,-0.038,2.800,9.741,1.144,0.056,-0.056,0.000,0.000,6,-0.001,0.014,782,1019,1250,917,2.747,9.430
544,0.000,-3.109,20.050,0.038,2.814,9.468,0.778,-2.208,14.689,-0.038,2.879,9.724,1.144,0.058,-0.058,0.000,0.000,6,-0.001,0.015,783,1020,1249,916,2.655,9.339
545,0.000,-3.109,20.050,0.038,2.817,9.449,0.748,-2.186,14.689,-0.049,2.910,9.739,1.175,0.061,-0.061,0.000,0.000,6,-0.001,0.015,782,1019,1248,918,2.655,9.339
546,0.000,-3.109,20.050,0.060,2.800,9.444,0.809,-2.186,14.689,-0.038,2.877,9.753,1.175,0.065,-0.065,0.000,0.000,6,-0.001,0.016,784,1019,1248,917,2.655,9.430
547,0.000,-3.109,20.050,0.038,2.829,9.456,0.961,-2.186,14.689,-0.049,2.829,9.724,1.144,0.069,-0.069,0.000,0.000,6,-0.001,0.017,783,1019,1250,916,2.747,9.430
548,0.000,-3.087,20.050,0.060,2.838,9.473,1.022,-2.186,14.689,-0.038,2.826,9.724,1.236,0.074,-0.074,0.000,0.000,6,-0.001,0.016,783,1019,1249,916,2.747,9.430
549,0.000,-3.087,20.050,0.049,2.829,9.463,0.961,-2.186,14.689,-0.038,2.877,9.703,1.144,0.077,-0.077,0.000,0.000,6,-0.001,0.016,783,1019,1249,917,2.747,9.430
550,0.000,-3.087,20.050,0.060,2.750,9.451,0.809,-2.186,14.689,-0.071,2.896,9.681,1.236,0.081,-0.081,0.000,0.000,6,-0.001,0.017,783,1019,1249,916,2.747,9.430
551,0.000,-3.087,20.050,0.049,2.843,9.461,0.687,-2.186,14.689,-0.082,2.872,9.731,1.205,0.086,-0.086,0.000,0.000,6,-0.001,0.017,783,1019,1249,915,2.747,9.430
552,0.000,-3.087,20.050,0.071,2.798,9.425,0.687,-2.186,14.689,-0.071,2.865,9.743,1.266,0.090,-0.090,0.000,0.000,6,-0.001,0.017,783,1019,1249,917,2.838,9.430
553,0.000,-3.087,20.050,0.082,2.802,9.473,0.687,-2.186,14.689,-0.093,2.848,9.693,1.266,0.095,-0.095,0.000,0.000,6,-0.001,0.018,783,1019,1249,917,2.747,9.430
554,0.000,-3.087,20.050,0.060,2.848,9.502,0.687,-2.186,14.689,-0.082,2.812,9.672,1.236,0.099,-0.099,0.000,0.000,6,-0.001,0.017,783,1019,1249,916,2.747,9.430
555,0.000,-3.065,20.050,0.071,2.898,9.504,0.839,-2.186,14.689,-0.082,2.831,9.712,1.266,0.103,-0.103,0.000,0.000,6,-0.001,0.017,783,1019,1249,915,2.838,9.430
556,0.000,-3.065,20.050,0.071,2.879,9.504,0.900,-2.186,14.689,-0.082,2.893,9.739,1.266,0.107,-0.107,0.000,0.000,6,-0.001,0.017,782,1019,1249,915,2.747,9.339
557,0.000,-3.065,20.050,0.082,2.826,9.466,0.839,-2.186,14.689,-0.082,2.877,9.751,1.266,0.109,-0.109,0.000,0.000,6,-0.001,0.017,784,1019,1249,915,2.747,9.430
558,0.000,-3.043,20.050,0.093,2.826,9.463,0.931,-2.186,14.689,-0.093,2.872,9.717,1.175,0.112,-0.112,0.000,0.000,6,-0.001,0.016,783,1019,1249,916,2.838,9.430
559,0.000,-3.043,20.050,0.082,2.826,9.504,0.931,-2.164,14.689,-0.104,2.853,9.739,1.205,0.114,-0.114,0.000,0.000,6,-0.001,0.016,784,1019,1250,915,2.838,9.430
560,0.000,-3.043,20.050,0.093,2.805,9.511,0.900,-2.164,14.689,-0.082,2.860,9.760,1.144,0.116,-0.116,0.000,0.000,6,-0.001,0.016,784,1019,1249,916,2.838,9.430
561,0.000,-3.043,20.050,0.093,2.817,9.490,0.931,-2.186,14.689,-0.093,2.838,9.748,1.175,0.117,-0.117,0.000,0.000,6,-0.002,0.015,784,1019,1249,915,2.747,9.430
562,0.000,-3.043,20.050,0.093,2.850,9.475,1.083,-2.186,14.689,-0.104,2.802,9.760,1.144,0.118,-0.118,0.000,0.000,6,-0.001,0.015,784,1019,1249,915,2.747,9.430
563,0.000,-3.043,20.050,0.104,2.810,9.482,1.114,-2.186,14.689,-0.082,2.819,9.743,1.297,0.118,-0.118,0.000,0.000,6,-0.001,0.015,784,1019,1250,916,2.747,9.430
564,0.000,-3.043,20.050,0.104,2.783,9.504,1.175,-2.186,14.689,-0.104,2.781,9.758,1.328,0.118,-0.118,0.000,0.000,6,-0.001,0.015,783,1018,1250,915,2.747,9.430
565,0.000,-3.043,20.050,0.115,2.822,9.492,1.083,-2.208,14.689,-0.115,2.819,9.770,1.297,0.118,-0.118,0.000,0.000,6,-0.002,0.015,784,1018,1250,915,2.747,9.430
566,0.000,-3.043,20.050,0.137,2.807,9.487,0.961,-2.208,14.689,-0.126,2.896,9.760,1.389,0.119,-0.119,0.000,0.000,6,-0.002,0.016,784,1019,1250,915,2.838,9.430
567,0.000,-3.043,20.050,0.115,2.774,9.473,1.114,-2.208,14.689,-0.115,2.850,9.751,1.358,0.119,-0.119,0.000,0.000,6,-0.002,0.016,784,1018,1249,916,2.747,9.430
568,0.000,-3.043,20.050,0.104,2.790,9.451,1.144,-2.208,14.667,-0.115,2.802,9.727,1.389,0.120,-0.120,0.000,0.000,6,-0.002,0.016,784,1019,1250,915,2.747,9.430
569,0.000,-3.043,20.050,0.093,2.826,9.490,1.266,-2.230,14.667,-0.115,2.814,9.741,1.297,0.122,-0.122,0.000,0.000,6,-0.002,0.017,784,1019,1250,915,2.747,9.430
570,0.000,-3.043,20.072,0.115,2.807,9.502,1.175,-2.230,14.667,-0.104,2.824,9.710,1.266,0.124,-0.124,0.000,0.000,6,-0.002,0.017,784,1019,1250,915,2.747,9.430
571,0.000,-3.043,20.072,0.104,2.779,9.475,1.175,-2.230,14.667,-0.104,2.814,9.712,1.175,0.127,-0.127,0.000,0.000,6,-0.002,0.017,784,1018,1250,915,2.747,9.430
572,0.000,-3.043,20.072,0.126,2.810,9.458,1.205,-2.230,14.667,-0.104,2.771,9.722,1.053,0.130,-0.130,0.000,0.000,6,-0.002,0.019,784,1019,1249,916,2.747,9.430
573,0.000,-3.043,20.072,0.082,2.841,9.454,1.266,-2.252,14.667,-0.126,2.783,9.710,0.992,0.133,-0.133,0.000,0.000,6,-0.002,0.020,786,1019,1249,915,2.747,9.430
574,0.000,-3.021,20.072,0.104,2.817,9.456,1.205,-2.252,14.667,-0.104,2.805,9.705,1.053,0.140,-0.140,0.000,0.000,6,-0.002,0.021,784,1019,1250,915,2.747,9.430
575,0.000,-3.021,20.072,0.126,2.800,9.437,1.266,-2.252,14.667,-0.126,2.846,9.700,0.931,0.146,-0.146,0.000,0.000,6,-0.002,0.021,784,1018,1251,915,2.747,9.430
576,0.000,-3.021,20.072,0.115,2.764,9.401,1.236,-2.252,14.667,-0.126,2.877,9.698,1.022,0.152,-0.152,0.000,0.000,6,-0.002,0.022,785,1018,1249,915,2.747,9.430
577,0.000,-3.021,20.072,0.137,2.786,9.408,1.175,-2.252,14.667,-0.159,2.850,9.691,1.175,0.160,-0.160,0.000,0.000,6,-0.002,0.022,784,1019,1250,915,2.838,9.430
578,0.000,-3.021,20.072,0.137,2.822,9.449,1.266,-2.252,14.667,-0.126,2.798,9.686,1.236,0.168,-0.168,0.000,0.000,6,-0.002,0.023,785,1018,1250,915,2.747,9.430
579,0.000,-3.021,20.072,0.126,2.810,9.458,1.328,-2.252,14.645,-0.148,2.793,9.645,1.358,0.176,-0.176,0.000,0.000,6,-0.002,0.024,785,1018,1250,915,2.747,9.430
580,0.000,-3.021,20.072,0.159,2.822,9.432,1.236,-2.274,14.645,-0.137,2.774,9.624,1.266,0.184,-0.184,0.000,0.000,6,-0.001,0.024,785,1018,1249,915,2.747,9.339
581,0.000,-3.021,20.072,0.148,2.812,9.418,1.205,-2.274,14.645,-0.159,2.752,9.643,1.236,0.194,-0.194,0.000,0.000,6,-0.002,0.024,785,1018,1250,914,2.747,9.339
582,0.000,-3.021,20.072,0.126,2.862,9.434,1.328,-2.274,14.645,-0.170,2.781,9.602,1.236,0.201,-0.201,0.000,0.000,6,-0.002,0.024,785,1018,1251,915,2.747,9.430
583,0.000,-2.999,20.072,0.148,2.874,9.442,1.358,-2.274,14.645,-0.192,2.774,9.578,1.236,0.209,-0.209,0.000,0.000,6,-0.002,0.023,785,1018,1251,914,2.747,9.430
584,0.000,-2.999,20.072,0.192,2.858,9.442,1.572,-2.296,14.645,-0.192,2.757,9.578,1.328,0.216,-0.216,0.000,0.000,6,-0.002,0.023,785,1018,1248,915,2.747,9.430
585,0.000,-2.999,20.072,0.203,2.860,9.444,1.816,-2.296,14.645,-0.192,2.743,9.595,1.358,0.221,-0.221,0.000,0.000,6,-0.001,0.022,787,1018,1250,915,2.747,9.339
586,0.000,-2.977,20.072,0.192,2.858,9.478,1.816,-2.318,14.645,-0.192,2.733,9.588,1.144,0.225,-0.225,0.000,0.000,6,-0.001,0.022,785,1018,1250,914,2.838,9.430
587,0.000,-2.977,20.072,0.203,2.893,9.504,1.907,-2.318,14.623,-0.214,2.752,9.593,0.931,0.228,-0.228,0.000,0.000,6,-0.002,0.021,785,1018,1250,914,2.838,9.430
588,0.000,-2.955,20.094,0.214,2.953,9.518,2.090,-2.318,14.623,-0.214,2.783,9.597,1.053,0.231,-0.231,0.000,0.000,6,-0.001,0.021,785,1018,1250,915,2.838,9.430
589,0.000,-2.933,20.094,0.214,2.932,9.511,2.243,-2.340,14.623,-0.214,2.757,9.545,1.266,0.233,-0.233,0.000,0.000,6,-0.001,0.021,785,1018,1249,914,2.838,9.430
590,0.000,-2.933,20.094,0.214,2.944,9.545,2.609,-2.340,14.623,-0.203,2.757,9.552,1.144,0.235,-0.235,0.000,0.000,6,-0.002,0.021,784,1018,1250,913,2.838,9.430
591,0.000,-2.911,20.094,0.203,2.908,9.509,2.792,-2.340,14.623,-0.214,2.848,9.576,1.053,0.238,-0.238,0.000,0.000,6,-0.002,0.020,785,1018,1250,915,2.838,9.430
592,0.000,-2.889,20.116,0.236,2.915,9.504,2.945,-2.340,14.601,-0.225,2.901,9.576,1.144,0.238,-0.238,0.000,0.000,6,-0.002,0.021,785,1019,1250,917,2.930,9.430
593,0.000,-2.889,20.116,0.225,2.913,9.530,2.976,-2.340,14.601,-0.225,2.946,9.573,1.266,0.240,-0.240,0.000,0.000,6,-0.002,0.020,785,1018,1250,914,2.930,9.430
594,0.000,-2.867,20.116,0.225,2.814,9.528,3.037,-2.340,14.601,-0.236,2.805,9.588,1.175,0.241,-0.241,0.000,0.000,6,-0.001,0.021,784,1018,1249,913,2.930,9.522
595,0.000,-2.867,20.116,0.236,2.771,9.533,3.159,-2.340,14.579,-0.225,2.750,9.559,1.022,0.243,-0.243,0.000,0.000,6,-0.001,0.022,784,1018,1250,914,2.838,9.430
596,0.000,-2.867,20.138,0.214,2.781,9.502,3.189,-2.340,14.579,-0.236,2.872,9.614,1.022,0.246,-0.246,0.000,0.000,6,-0.002,0.021,784,1019,1249,916,2.838,9.430
597,0.000,-2.867,20.138,0.236,2.805,9.492,3.189,-2.340,14.579,-0.236,2.925,9.679,0.961,0.248,-0.248,0.000,0.000,6,-0.002,0.022,785,1018,1250,914,2.838,9.522
598,0.000,-2.867,20.138,0.247,2.817,9.470,3.220,-2.318,14.579,-0.236,3.004,9.624,1.083,0.251,-0.251,0.000,0.000,6,-0.002,0.022,784,1018,1250,915,2.747,9.522
599,0.000,-2.867,20.160,0.247,2.822,9.475,3.281,-2.318,14.579,-0.236,3.042,9.621,1.205,0.254,-0.254,0.000,0.000,6,-0.002,0.022,784,1018,1249,915,2.747,9.522
600,0.000,-2.867,20.160,0.247,2.807,9.458,3.311,-2.296,14.557,-0.236,2.984,9.619,1.266,0.256,-0.256,0.000,0.000,6,-0.002,0.022,785,1018,1250,914,2.747,9.430
601,0.000,-2.867,20.160,0.247,2.759,9.415,3.159,-2.274,14.557,-0.247,2.937,9.621,1.419,0.258,-0.258,0.000,0.000,6,-0.002,0.022,785,1018,1249,915,2.747,9.430
602,0.000,-2.867,20.160,0.225,2.747,9.391,3.098,-2.274,14.557,-0.236,2.968,9.583,1.511,0.260,-0.260,0.000,0.000,6,-0.001,0.022,784,1018,1249,914,2.747,9.430
603,0.000,-2.867,20.160,0.247,2.721,9.341,3.006,-2.252,14.557,-0.225,2.960,9.535,1.541,0.263,-0.263,0.000,0.000,6,-0.002,0.023,785,1018,1250,914,2.747,9.430
604,0.000,-2.867,20.182,0.247,2.690,9.358,3.159,-2.252,14.557,-0.247,2.946,9.561,1.755,0.266,-0.266,0.000,0.000,6,-0.002,0.023,785,1018,1250,914,2.747,9.430
605,0.000,-2.889,20.182,0.247,2.695,9.346,3.128,-2.230,14.557,-0.247,2.975,9.561,1.999,0.270,-0.270,0.000,0.000,6,-0.002,0.023,784,1018,1249,914,2.747,9.339
606,0.000,-2.889,20.182,0.247,2.735,9.315,3.250,-2.208,14.557,-0.225,2.968,9.576,2.274,0.272,-0.272,0.000,0.000,6,-0.002,0.022,784,1018,1250,914,2.747,9.339
607,0.000,-2.889,20.182,0.269,2.747,9.284,3.281,-2.208,14.557,-0.258,2.898,9.604,2.213,0.274,-0.274,0.000,0.000,6,-0.002,0.021,785,1018,1249,914,2.655,9.339
608,0.000,-2.889,20.182,0.258,2.750,9.241,3.128,-2.208,14.557,-0.258,2.872,9.571,2.274,0.275,-0.275,0.000,0.000,6,-0.002,0.021,785,1019,1250,914,2.655,9.339
609,0.000,-2.889,20.204,0.236,2.697,9.269,3.098,-2.208,14.557,-0.258,2.879,9.549,2.396,0.275,-0.275,0.000,0.000,6,-0.002,0.020,785,1018,1249,914,2.655,9.339
610,0.000,-2.889,20.204,0.247,2.683,9.274,3.189,-2.208,14.557,-0.269,2.889,9.588,2.518,0.274,-0.274,0.000,0.000,6,-0.002,0.020,785,1018,1250,914,2.655,9.247
611,0.000,-2.889,20.204,0.258,2.685,9.241,3.220,-2.208,14.557,-0.280,2.858,9.581,2.609,0.273,-0.273,0.000,0.000,6,-0.002,0.019,784,1018,1249,914,2.747,9.247
612,0.000,-2.889,20.204,0.269,2.683,9.233,3.311,-2.186,14.557,-0.269,2.879,9.585,2.701,0.271,-0.271,0.000,0.000,6,-0.002,0.019,786,1018,1249,914,2.747,9.155
613,0.000,-2.889,20.204,0.269,2.721,9.267,3.311,-2.186,14.557,-0.269,2.893,9.595,2.640,0.269,-0.269,0.000,0.000,6,-0.002,0.019,785,1018,1250,914,2.655,9.247
614,0.000,-2.889,20.226,0.258,2.709,9.300,3.372,-2.186,14.557,-0.280,2.862,9.578,2.701,0.266,-0.266,0.000,0.000,6,-0.002,0.018,785,1018,1250,914,2.655,9.247
615,0.000,-2.889,20.226,0.258,2.719,9.305,3.433,-2.186,14.557,-0.236,2.831,9.566,2.701,0.262,-0.262,0.000,0.000,6,-0.002,0.018,784,1018,1249,914,2.655,9.155
616,0.000,-2.889,20.226,0.247,2.743,9.296,3.311,-2.186,14.557,-0.258,2.812,9.557,2.762,0.259,-0.259,0.000,0.000,6,-0.002,0.017,785,1018,1249,914,2.655,9.155
617,0.000,-2.889,20.226,0.247,2.723,9.300,3.281,-2.186,14.557,-0.258,2.858,9.569,3.037,0.254,-0.254,0.000,0.000,6,-0.002,0.017,785,1018,1250,914,2.655,9.247
618,0.000,-2.889,20.226,0.247,2.690,9.324,3.159,-2.186,14.557,-0.236,2.848,9.581,3.006,0.250,-0.250,0.000,0.000,6,-0.001,0.017,785,1018,1249,914,2.655,9.247
619,0.000,-2.889,20.226,0.236,2.676,9.344,3.006,-2.186,14.557,-0.247,2.805,9.593,2.976,0.246,-0.246,0.000,0.000,6,-0.001,0.016,785,1018,1248,914,2.655,9.247
620,0.000,-2.911,20.248,0.258,2.692,9.379,2.823,-2.208,14.557,-0.247,2.817,9.590,3.128,0.241,-0.241,0.000,0.000,6,-0.001,0.017,785,1018,1249,913,2.655,9.247
621,0.000,-2.911,20.248,0.225,2.680,9.375,2.853,-2.208,14.557,-0.247,2.795,9.530,3.250,0.238,-0.238,0.000,0.000,6,-0.001,0.016,784,1018,1251,914,2.655,9.247
622,0.000,-2.911,20.248,0.225,2.695,9.408,2.945,-2.208,14.557,-0.225,2.740,9.504,3.250,0.233,-0.233,0.000,0.000,6,-0.002,0.016,784,1018,1249,914,2.655,9.247
623,0.000,-2.911,20.248,0.236,2.759,9.415,3.037,-2.230,14.557,-0.225,2.752,9.547,3.128,0.229,-0.229,0.000,0.000,6,-0.002,0.017,785,1018,1248,915,2.655,9.339
624,0.000,-2.933,20.248,0.236,2.740,9.423,2.762,-2.230,14.557,-0.225,2.798,9.573,3.006,0.226,-0.226,0.000,0.000,6,-0.002,0.017,786,1018,1249,914,2.655,9.339
625,0.000,-2.933,20.248,0.225,2.728,9.468,2.487,-2.230,14.557,-0.203,2.697,9.597,3.037,0.223,-0.223,0.000,0.000,6,-0.001,0.017,785,1018,1249,912,2.655,9.339
626,0.000,-2.933,20.248,0.214,2.716,9.432,2.335,-2.252,14.557,-0.225,2.697,9.609,2.976,0.220,-0.220,0.000,0.000,6,-0.001,0.017,785,1018,1250,914,2.655,9.339
627,0.000,-2.933,20.248,0.214,2.769,9.413,2.121,-2.274,14.557,-0.214,2.719,9.597,2.884,0.217,-0.217,0.000,0.000,6,-0.001,0.017,785,1018,1249,914,2.747,9.339
628,0.000,-2.933,20.248,0.203,2.817,9.391,2.213,-2.274,14.557,-0.225,2.640,9.576,2.853,0.215,-0.215,0.000,0.000,6,-0.001,0.017,785,1018,1248,913,2.655,9.339
629,0.000,-2.933,20.248,0.236,2.817,9.358,2.335,-2.296,14.557,-0.192,2.671,9.545,2.792,0.212,-0.212,0.000,0.000,6,-0.001,0.017,784,1018,1249,912,2.655,9.430
630,0.000,-2.933,20.248,0.225,2.783,9.363,2.213,-2.318,14.557,-0.203,2.673,9.557,2.792,0.210,-0.210,0.000,0.000,6,-0.001,0.017,785,1017,1249,913,2.655,9.430
631,0.000,-2.911,20.248,0.203,2.817,9.415,1.938,-2.340,14.557,-0.181,2.661,9.545,2.945,0.208,-0.208,0.000,0.000,6,-0.001,0.018,785,1018,1249,915,2.747,9.339
632,0.000,-2.911,20.248,0.214,2.836,9.382,1.907,-2.340,14.557,-0.192,2.628,9.528,2.884,0.207,-0.207,0.000,0.000,6,-0.001,0.017,785,1018,1250,912,2.747,9.339
633,0.000,-2.911,20.248,0.214,2.831,9.389,1.968,-2.362,14.557,-0.203,2.580,9.506,2.731,0.206,-0.206,0.000,0.000,6,-0.001,0.017,785,1018,1250,912,2.747,9.339
634,0.000,-2.889,20.248,0.181,2.896,9.437,1.968,-2.384,14.557,-0.192,2.585,9.480,2.640,0.204,-0.204,0.000,0.000,6,-0.001,0.017,784,1018,1249,913,2.747,9.339
635,0.000,-2.889,20.248,0.181,2.858,9.399,2.152,-2.406,14.557,-0.203,2.565,9.504,2.609,0.202,-0.202,0.000,0.000,6,-0.001,0.017,785,1018,1249,914,2.747,9.339
636,0.000,-2.889,20.248,0.192,2.858,9.391,2.182,-2.428,14.557,-0.203,2.577,9.506,2.701,0.201,-0.201,0.000,0.000,6,-0.001,0.017,785,1018,1249,913,2.747,9.339
637,0.000,-2.867,20.248,0.203,2.889,9.408,2.090,-2.450,14.557,-0.192,2.664,9.492,2.640,0.200,-0.200,0.000,0.000,6,-0.001,0.017,785,1018,1250,913,2.747,9.339
638,0.000,-2.867,20.248,0.203,2.812,9.427,2.060,-2.472,14.557,-0.170,2.647,9.502,2.487,0.198,-0.198,0.000,0.000,6,-0.001,0.017,785,1018,1249,913,2.838,9.430
639,0.000,-2.867,20.248,0.181,2.805,9.442,2.152,-2.472,14.557,-0.192,2.575,9.530,2.396,0.196,-0.196,0.000,0.000,6,-0.001,0.018,785,1018,1249,913,2.838,9.339
640,0.000,-2.867,20.248,0.203,2.865,9.458,2.121,-2.494,14.557,-0.181,2.609,9.547,2.487,0.195,-0.195,0.000,0.000,6,-0.000,0.018,785,1018,1248,913,2.838,9.339
641,0.000,-2.846,20.248,0.192,2.865,9.454,2.029,-2.516,14.557,-0.192,2.642,9.537,2.579,0.196,-0.196,0.000,0.000,6,-0.000,0.020,785,1018,1248,912,2.838,9.339
642,0.000,-2.846,20.248,0.170,2.855,9.475,1.999,-2.538,14.557,-0.181,2.630,9.521,2.335,0.198,-0.198,0.000,0.000,6,-0.001,0.021,785,1018,1249,912,2.747,9.339
643,0.000,-2.846,20.248,0.181,2.896,9.509,2.060,-2.538,14.557,-0.170,2.668,9.506,2.243,0.202,-0.202,0.000,0.000,6,-0.001,0.022,785,1018,1249,913,2.747,9.430
644,0.000,-2.846,20.248,0.181,2.850,9.506,2.152,-2.560,14.557,-0.181,2.613,9.518,2.335,0.207,-0.207,0.000,0.000,6,-0.001,0.023,785,1018,1249,912,2.838,9.430
645,0.000,-2.824,20.248,0.192,2.838,9.525,2.060,-2.560,14.557,-0.192,2.553,9.537,2.274,0.214,-0.214,0.000,0.000,6,-0.001,0.024,785,1019,1249,912,2.838,9.430
646,0.000,-2.824,20.248,0.181,2.867,9.523,1.938,-2.582,14.557,-0.203,2.609,9.518,2.213,0.220,-0.220,0.000,0.000,6,-0.001,0.025,785,1018,1249,912,2.838,9.430
647,0.000,-2.824,20.248,0.181,2.793,9.518,1.999,-2.604,14.557,-0.203,2.644,9.494,2.274,0.228,-0.228,0.000,0.000,6,-0.001,0.025,785,1019,1249,912,2.838,9.430
648,0.000,-2.824,20.248,0.192,2.817,9.542,1.968,-2.604,14.557,-0.203,2.635,9.521,2.121,0.235,-0.235,0.000,0.000,6,-0.001,0.025,785,1018,1249,913,2.838,9.430
649,0.000,-2.824,20.248,0.225,2.934,9.552,1.968,-2.626,14.557,-0.225,2.661,9.547,2.029,0.243,-0.243,0.000,0.000,6,-0.001,0.025,785,1018,1249,912,2.838,9.522
650,0.000,-2.824,20.248,0.192,2.982,9.554,1.938,-2.626,14.557,-0.214,2.668,9.573,1.907,0.249,-0.249,0.000,0.000,6,-0.001,0.024,786,1018,1249,912,2.838,9.522
651,0.000,-2.802,20.248,0.214,2.944,9.576,1.938,-2.648,14.557,-0.258,2.620,9.616,1.755,0.255,-0.255,0.000,0.000,6,-0.001,0.024,787,1019,1249,912,2.747,9.430
652,0.000,-2.802,20.248,0.214,2.944,9.600,2.029,-2.648,14.557,-0.236,2.635,9.619,1.755,0.260,-0.260,0.000,0.000,6,-0.001,0.024,785,1018,1250,912,2.747,9.522
653,0.000,-2.780,20.248,0.214,2.980,9.561,2.213,-2.670,14.557,-0.236,2.673,9.602,1.816,0.264,-0.264,0.000,0.000,6,-0.001,0.023,785,1018,1250,912,2.930,9.522
654,0.000,-2.780,20.248,0.236,2.932,9.557,2.335,-2.670,14.557,-0.236,2.642,9.588,2.029,0.267,-0.267,0.000,0.000,6,-0.001,0.023,785,1018,1249,912,2.930,9.522
655,0.000,-2.780,20.248,0.247,2.874,9.581,2.426,-2.692,14.557,-0.269,2.620,9.597,1.938,0.271,-0.271,0.000,0.000,6,-0.002,0.023,785,1018,1249,912,2.930,9.522
656,0.000,-2.758,20.248,0.236,2.879,9.557,2.548,-2.692,14.557,-0.247,2.700,9.602,1.724,0.273,-0.273,0.000,0.000,6,-0.002,0.022,785,1019,1250,912,2.930,9.522
657,0.000,-2.758,20.248,0.258,2.850,9.504,2.548,-2.714,14.557,-0.269,2.700,9.631,1.755,0.275,-0.275,0.000,0.000,6,-0.002,0.022,785,1018,1249,912,2.930,9.522
658,0.000,-2.758,20.248,0.258,2.848,9.499,2.609,-2.714,14.557,-0.269,2.716,9.628,1.877,0.276,-0.276,0.000,0.000,6,-0.002,0.021,786,1019,1248,912,2.930,9.522
659,0.000,-2.758,20.248,0.269,2.836,9.506,2.762,-2.714,14.557,-0.269,2.755,9.590,1.907,0.277,-0.277,0.000,0.000,6,-0.002,0.021,785,1019,1249,912,2.838,9.522
660,0.000,-2.758,20.248,0.269,2.824,9.499,2.701,-2.714,14.557,-0.269,2.752,9.652,1.938,0.277,-0.277,0.000,0.000,6,-0.002,0.021,786,1019,1250,912,2.838,9.522
661,0.000,-2.758,20.248,0.258,2.831,9.497,2.640,-2.714,14.557,-0.269,2.779,9.695,1.877,0.278,-0.278,0.000,0.000,6,-0.002,0.022,786,1019,1250,911,2.838,9.430
662,0.000,-2.758,20.248,0.269,2.810,9.478,2.579,-2.714,14.557,-0.269,2.759,9.710,1.968,0.279,-0.279,0.000,0.000,6,-0.002,0.021,785,1018,1248,913,2.838,9.430
663,0.000,-2.758,20.270,0.258,2.819,9.478,2.731,-2.714,14.557,-0.258,2.728,9.719,1.938,0.280,-0.280,0.000,0.000,6,-0.002,0.021,787,1018,1248,912,2.747,9.430
664,0.000,-2.758,20.270,0.269,2.855,9.492,2.731,-2.736,14.535,-0.258,2.745,9.724,2.029,0.280,-0.280,0.000,0.000,6,-0.002,0.021,786,1019,1249,911,2.747,9.430
665,0.000,-2.758,20.270,0.258,2.858,9.470,2.701,-2.736,14.535,-0.269,2.752,9.734,1.968,0.280,-0.280,0.000,0.000,6,-0.002,0.020,785,1019,1249,912,2.747,9.430
666,0.000,-2.758,20.270,0.269,2.793,9.437,2.670,-2.736,14.535,-0.280,2.757,9.731,1.999,0.278,-0.278,0.000,0.000,6,-0.002,0.020,786,1018,1249,912,2.747,9.430
667,0.000,-2.758,20.270,0.269,2.774,9.415,2.792,-2.736,14.535,-0.269,2.786,9.748,2.060,0.277,-0.277,0.000,0.000,6,-0.002,0.020,786,1018,1249,911,2.747,9.430
668,0.000,-2.758,20.270,0.269,2.779,9.408,2.884,-2.736,14.535,-0.269,2.824,9.753,2.152,0.275,-0.275,0.000,0.000,6,-0.002,0.020,786,1019,1249,910,2.838,9.430
669,0.000,-2.758,20.270,0.269,2.733,9.418,2.976,-2.736,14.535,-0.247,2.779,9.772,2.029,0.274,-0.274,0.000,0.000,6,-0.002,0.020,786,1018,1249,912,2.838,9.430
670,0.000,-2.780,20.270,0.269,2.755,9.399,2.853,-2.736,14.535,-0.247,2.795,9.779,2.121,0.273,-0.273,0.000,0.000,6,-0.002,0.021,786,1019,1249,913,2.747,9.430
671,0.000,-2.780,20.270,0.247,2.767,9.387,2.762,-2.736,14.535,-0.258,2.788,9.760,2.121,0.273,-0.273,0.000,0.000,6,-0.002,0.020,786,1018,1249,910,2.747,9.339
672,0.000,-2.780,20.270,0.269,2.781,9.396,2.823,-2.736,14.535,-0.269,2.776,9.774,2.243,0.272,-0.272,0.000,0.000,6,-0.002,0.020,786,1019,1249,909,2.747,9.339
673,0.000,-2.780,20.270,0.258,2.824,9.363,2.823,-2.736,14.535,-0.269,2.802,9.784,2.335,0.271,-0.271,0.000,0.000,6,-0.002,0.020,785,1018,1249,911,2.655,9.339
674,0.000,-2.780,20.270,0.258,2.805,9.320,2.914,-2.736,14.535,-0.269,2.790,9.751,2.152,0.270,-0.270,0.000,0.000,6,-0.003,0.020,786,1019,1249,911,2.747,9.339
675,0.000,-2.780,20.270,0.258,2.802,9.353,2.914,-2.736,14.535,-0.247,2.786,9.755,2.182,0.269,-0.269,0.000,0.000,6,-0.002,0.019,786,1019,1249,911,2.747,9.339
676,0.000,-2.780,20.270,0.258,2.807,9.363,2.853,-2.736,14.535,-0.269,2.769,9.777,2.365,0.266,-0.266,0.000,0.000,6,-0.002,0.019,786,1019,1249,911,2.747,9.339
677,0.000,-2.780,20.270,0.258,2.750,9.332,2.792,-2.736,14.535,-0.258,2.805,9.760,2.457,0.263,-0.263,0.000,0.000,6,-0.002,0.018,786,1019,1249,911,2.747,9.339
678,0.000,-2.780,20.270,0.258,2.769,9.358,2.823,-2.736,14.535,-0.236,2.790,9.734,2.457,0.260,-0.260,0.000,0.000,6,-0.002,0.018,786,1019,1249,911,2.747,9.247
679,0.000,-2.780,20.270,0.236,2.831,9.372,2.762,-2.736,14.535,-0.258,2.810,9.760,2.701,0.257,-0.257,0.000,0.000,6,-0.001,0.018,786,1019,1249,911,2.747,9.339
680,0.000,-2.758,20.270,0.280,2.862,9.360,2.731,-2.736,14.535,-0.269,2.793,9.751,2.640,0.253,-0.253,0.000,0.000,6,-0.001,0.019,787,1019,1249,911,2.747,9.339
681,0.000,-2.758,20.270,0.247,2.860,9.329,2.670,-2.736,14.535,-0.247,2.740,9.695,2.701,0.251,-0.251,0.000,0.000,6,-0.002,0.019,786,1019,1249,911,2.747,9.247
682,0.000,-2.758,20.270,0.247,2.834,9.320,2.762,-2.758,14.535,-0.236,2.707,9.703,2.548,0.250,-0.250,0.000,0.000,6,-0.002,0.020,787,1019,1249,911,2.747,9.339
683,0.000,-2.736,20.270,0.247,2.898,9.334,2.823,-2.758,14.535,-0.247,2.697,9.683,2.518,0.250,-0.250,0.000,0.000,6,-0.002,0.020,787,1018,1249,910,2.747,9.339
684,0.000,-2.736,20.270,0.236,2.860,9.322,2.762,-2.758,14.535,-0.247,2.771,9.650,2.609,0.250,-0.250,0.000,0.000,6,-0.002,0.020,787,1019,1249,911,2.838,9.339
685,0.000,-2.736,20.270,0.247,2.800,9.344,2.823,-2.758,14.535,-0.225,2.793,9.700,2.518,0.249,-0.249,0.000,0.000,6,-0.002,0.020,786,1019,1249,911,2.838,9.247
686,0.000,-2.736,20.270,0.236,2.848,9.394,2.823,-2.758,14.535,-0.258,2.798,9.707,2.579,0.249,-0.249,0.000,0.000,6,-0.001,0.020,787,1019,1250,911,2.747,9.247
687,0.000,-2.714,20.270,0.247,2.855,9.377,2.792,-2.758,14.535,-0.236,2.781,9.662,2.731,0.249,-0.249,0.000,0.000,6,-0.001,0.020,787,1018,1249,911,2.838,9.247
688,0.000,-2.714,20.270,0.236,2.826,9.351,2.731,-2.758,14.535,-0.258,2.767,9.676,2.670,0.250,-0.250,0.000,0.000,6,-0.001,0.020,787,1019,1249,910,2.838,9.247
689,0.000,-2.714,20.270,0.225,2.879,9.363,2.792,-2.758,14.535,-0.225,2.786,9.681,2.792,0.251,-0.251,0.000,0.000,6,-0.001,0.020,787,1019,1249,911,2.747,9.339
690,0.000,-2.692,20.270,0.247,2.960,9.348,2.762,-2.758,14.535,-0.236,2.776,9.660,2.701,0.251,-0.251,0.000,0.000,6,-0.001,0.020,789,1018,1248,910,2.838,9.339
691,0.000,-2.692,20.270,0.225,2.958,9.353,2.731,-2.758,14.535,-0.247,2.716,9.645,2.609,0.252,-0.252,0.000,0.000,6,-0.001,0.020,787,1019,1249,910,2.838,9.339
692,0.000,-2.670,20.270,0.247,2.934,9.413,2.701,-2.758,14.535,-0.236,2.709,9.621,2.884,0.253,-0.253,0.000,0.000,6,-0.001,0.020,787,1019,1250,910,2.747,9.339
693,0.000,-2.670,20.270,0.258,2.949,9.413,2.701,-2.758,14.535,-0.247,2.738,9.588,3.037,0.252,-0.252,0.000,0.000,6,-0.001,0.020,787,1018,1248,911,2.838,9.339
694,0.000,-2.648,20.270,0.247,2.920,9.415,2.823,-2.758,14.535,-0.247,2.743,9.604,3.159,0.252,-0.252,0.000,0.000,6,-0.001,0.020,787,1018,1248,911,2.930,9.339
695,0.000,-2.648,20.270,0.236,2.932,9.434,2.914,-2.758,14.535,-0.247,2.759,9.554,3.128,0.251,-0.251,0.000,0.000,6,-0.001,0.019,787,1019,1249,910,2.930,9.339
696,0.000,-2.626,20.270,0.236,2.929,9.456,2.914,-2.758,14.535,-0.236,2.738,9.511,3.067,0.250,-0.250,0.000,0.000,6,-0.001,0.018,788,1019,1249,911,2.930,9.339
697,0.000,-2.626,20.270,0.236,2.946,9.454,2.731,-2.758,14.535,-0.258,2.735,9.530,2.976,0.248,-0.248,0.000,0.000,6,-0.001,0.018,787,1019,1248,911,2.930,9.339
698,0.000,-2.604,20.270,0.247,3.011,9.437,2.731,-2.758,14.535,-0.225,2.740,9.504,3.006,0.245,-0.245,0.000,0.000,6,-0.001,0.017,787,1019,1248,910,2.838,9.339
699,0.000,-2.582,20.270,0.236,3.020,9.478,2.914,-2.758,14.535,-0.236,2.774,9.499,3.067,0.242,-0.242,0.000,0.000,6,-0.001,0.017,788,1019,1250,910,2.930,9.430
700,0.000,-2.582,20.270,0.247,3.001,9.504,2.884,-2.758,14.535,-0.247,2.728,9.509,3.067,0.238,-0.238,0.000,0.000,6,-0.001,0.017,787,1019,1250,910,2.930,9.430
701,0.000,-2.560,20.270,0.236,3.001,9.468,2.945,-2.758,14.535,-0.247,2.616,9.492,3.067,0.235,-0.235,0.000,0.000,6,-0.001,0.017,788,1019,1247,911,2.930,9.430
702,0.000,-2.538,20.270,0.247,3.016,9.458,2.976,-2.758,14.535,-0.236,2.723,9.451,3.067,0.232,-0.232,0.000,0.000,6,-0.001,0.017,789,1019,1248,911,2.930,9.430
703,0.000,-2.538,20.270,0.236,3.059,9.456,2.853,-2.758,14.535,-0.214,2.771,9.415,3.128,0.228,-0.228,0.000,0.000,6,-0.001,0.017,788,1019,1249,909,3.021,9.430
704,0.000,-2.516,20.270,0.225,3.013,9.451,2.884,-2.758,14.535,-0.214,2.680,9.430,3.159,0.226,-0.226,0.000,0.000,6,-0.001,0.017,788,1019,1248,910,2.930,9.430
705,0.000,-2.494,20.270,0.236,2.996,9.475,3.006,-2.758,14.535,-0.214,2.728,9.411,3.250,0.222,-0.222,0.000,0.000,6,-0.001,0.017,788,1019,1249,911,2.930,9.430
706,0.000,-2.472,20.270,0.214,3.044,9.475,3.220,-2.758,14.535,-0.225,2.781,9.377,3.403,0.220,-0.220,0.000,0.000,6,-0.001,0.018,788,1019,1248,910,2.930,9.430
707,0.000,-2.472,20.270,0.236,3.018,9.482,3.250,-2.736,14.535,-0.214,2.731,9.391,3.403,0.219,-0.219,0.000,0.000,6,-0.001,0.018,786,1019,1248,909,3.021,9.430
708,0.000,-2.450,20.270,0.225,3.018,9.518,3.098,-2.736,14.535,-0.214,2.743,9.420,3.342,0.218,-0.218,0.000,0.000,6,-0.001,0.019,788,1018,1248,910,2.930,9.430
709,0.000,-2.428,20.270,0.203,3.095,9.535,2.884,-2.736,14.535,-0.192,2.747,9.439,3.372,0.218,-0.218,0.000,0.000,6,-0.001,0.020,788,1019,1248,911,2.930,9.430
710,0.000,-2.428,20.270,0.214,3.075,9.499,2.914,-2.736,14.535,-0.214,2.726,9.444,3.494,0.219,-0.219,0.000,0.000,6,-0.001,0.020,788,1019,1249,910,3.021,9.430
711,0.000,-2.406,20.270,0.236,3.071,9.497,3.006,-2.736,14.535,-0.192,2.697,9.406,3.464,0.220,-0.220,0.000,0.000,6,-0.001,0.020,788,1019,1248,909,2.930,9.430
712,0.000,-2.384,20.270,0.214,3.092,9.533,3.189,-2.736,14.535,-0.214,2.659,9.341,3.494,0.222,-0.222,0.000,0.000,6,-0.001,0.023,787,1019,1248,908,2.930,9.430
713,0.000,-2.362,20.270,0.192,3.066,9.542,3.281,-2.736,14.535,-0.225,2.690,9.308,3.586,0.228,-0.228,0.000,0.000,6,-0.001,0.024,788,1019,1248,911,3.021,9.522
714,0.000,-2.362,20.270,0.214,3.059,9.537,3.311,-2.736,14.535,-0.203,2.685,9.336,3.708,0.234,-0.234,0.000,0.000,6,-0.001,0.026,789,1019,1248,910,3.021,9.430
715,0.000,-2.340,20.270,0.203,3.044,9.530,3.159,-2.736,14.535,-0.225,2.666,9.379,3.738,0.243,-0.243,0.000,0.000,6,-0.001,0.028,788,1019,1248,910,3.021,9.430
716,0.000,-2.340,20.270,0.214,2.999,9.506,3.098,-2.736,14.535,-0.203,2.668,9.320,3.708,0.253,-0.253,0.000,0.000,6,-0.001,0.029,789,1019,1248,910,3.021,9.522
717,0.000,-2.318,20.270,0.214,3.001,9.492,3.189,-2.736,14.535,-0.214,2.642,9.308,3.525,0.264,-0.264,0.000,0.000,6,-0.001,0.030,788,1019,1248,909,3.021,9.522
718,0.000,-2.318,20.270,0.225,3.061,9.509,3.281,-2.758,14.535,-0.225,2.616,9.348,3.433,0.277,-0.277,0.000,0.000,6,-0.001,0.030,789,1019,1249,910,3.021,9.522
719,0.000,-2.296,20.270,0.247,3.111,9.542,3.250,-2.758,14.535,-0.247,2.642,9.322,3.555,0.288,-0.288,0.000,0.000,6,-0.000,0.030,789,1019,1248,910,3.021,9.522
720,0.000,-2.274,20.270,0.247,3.142,9.571,3.311,-2.758,14.535,-0.258,2.707,9.291,3.616,0.299,-0.299,0.000,0.000,6,-0.001,0.029,788,1019,1249,910,2.930,9.430
721,0.000,-2.252,20.270,0.269,3.078,9.528,3.525,-2.758,14.535,-0.280,2.711,9.322,3.616,0.307,-0.307,0.000,0.000,6,-0.002,0.029,789,1019,1248,910,2.930,9.430
722,0.000,-2.252,20.270,0.269,3.063,9.525,3.525,-2.758,14.535,-0.291,2.673,9.387,3.647,0.315,-0.315,0.000,0.000,6,-0.001,0.028,789,1019,1248,909,3.021,9.430
723,0.000,-2.230,20.270,0.291,3.059,9.545,3.372,-2.758,14.535,-0.280,2.647,9.384,3.586,0.322,-0.322,0.000,0.000,6,-0.001,0.028,788,1019,1248,910,3.021,9.522
724,0.000,-2.230,20.270,0.291,3.016,9.557,3.342,-2.758,14.535,-0.313,2.635,9.363,3.494,0.328,-0.328,0.000,0.000,6,-0.001,0.028,789,1019,1248,909,3.113,9.522
725,0.000,-2.230,20.270,0.291,3.011,9.564,3.311,-2.758,14.535,-0.313,2.637,9.394,3.372,0.334,-0.334,0.000,0.000,6,-0.002,0.028,789,1020,1249,910,3.021,9.522
726,0.000,-2.208,20.270,0.302,3.044,9.569,3.342,-2.780,14.535,-0.335,2.652,9.430,3.464,0.340,-0.340,0.000,0.000,6,-0.001,0.029,789,1019,1248,910,3.021,9.522
727,0.000,-2.208,20.270,0.302,3.049,9.549,3.525,-2.780,14.535,-0.335,2.688,9.432,3.525,0.347,-0.347,0.000,0.000,6,-0.001,0.030,789,1019,1248,909,3.021,9.522
728,0.000,-2.186,20.270,0.313,3.037,9.554,3.616,-2.780,14.535,-0.335,2.678,9.425,3.433,0.355,-0.355,0.000,0.000,6,-0.001,0.031,789,1019,1248,910,2.930,9.522
729,0.000,-2.186,20.270,0.324,3.020,9.533,3.616,-2.780,14.535,-0.313,2.673,9.406,3.250,0.363,-0.363,0.000,0.000,6,-0.001,0.032,791,1019,1248,909,2.930,9.522
730,0.000,-2.186,20.270,0.324,2.987,9.525,3.616,-2.802,14.535,-0.335,2.692,9.427,3.159,0.373,-0.373,0.000,0.000,6,-0.002,0.034,790,1019,1249,909,3.021,9.522
731,0.000,-2.164,20.270,0.335,3.028,9.559,3.799,-2.802,14.535,-0.346,2.678,9.475,2.976,0.384,-0.384,0.000,0.000,6,-0.002,0.034,789,1019,1250,909,3.021,9.522
732,0.000,-2.164,20.270,0.357,3.030,9.542,3.922,-2.802,14.535,-0.368,2.688,9.473,2.945,0.394,-0.394,0.000,0.000,6,-0.001,0.034,789,1019,1248,909,3.021,9.522
733,0.000,-2.142,20.292,0.357,2.989,9.521,3.952,-2.802,14.513,-0.379,2.786,9.449,2.976,0.404,-0.404,0.000,0.000,6,-0.002,0.033,790,1019,1248,909,3.021,9.522
734,0.000,-2.142,20.292,0.357,3.001,9.497,4.074,-2.802,14.513,-0.368,2.635,9.463,2.823,0.412,-0.412,0.000,0.000,6,-0.002,0.032,790,1019,1250,909,2.930,9.522
735,0.000,-2.142,20.292,0.379,2.996,9.482,4.105,-2.824,14.513,-0.390,2.671,9.535,2.914,0.419,-0.419,0.000,0.000,6,-0.002,0.031,790,1019,1249,909,3.021,9.522
736,0.000,-2.120,20.292,0.368,2.970,9.492,4.166,-2.824,14.513,-0.412,2.747,9.549,2.823,0.424,-0.424,0.000,0.000,6,-0.002,0.030,790,1019,1247,910,3.021,9.522
737,0.000,-2.120,20.314,0.379,2.862,9.482,4.196,-2.824,14.491,-0.423,2.757,9.549,2.670,0.428,-0.428,0.000,0.000,6,-0.002,0.032,790,1019,1248,909,2.930,9.522
738,0.000,-2.120,20.314,0.401,2.920,9.509,4.318,-2.846,14.491,-0.390,2.779,9.528,2.487,0.434,-0.434,0.000,0.000,6,-0.002,0.034,790,1019,1250,909,2.930,9.430
739,0.000,-2.120,20.314,0.401,2.965,9.490,4.471,-2.846,14.491,-0.412,2.757,9.588,2.152,0.443,-0.443,0.000,0.000,6,-0.002,0.034,790,1019,1249,909,2.930,9.430
740,0.000,-2.120,20.336,0.401,2.886,9.430,4.746,-2.846,14.491,-0.423,2.755,9.648,2.121,0.450,-0.450,0.000,0.000,6,-0.002,0.034,790,1019,1248,910,2.930,9.430
741,0.000,-2.098,20.336,0.412,2.910,9.418,5.020,-2.846,14.469,-0.423,2.757,9.660,1.907,0.457,-0.457,0.000,0.000,6,-0.002,0.033,792,1019,1248,910,2.838,9.430
742,0.000,-2.098,20.358,0.434,2.956,9.425,5.173,-2.867,14.469,-0.434,2.819,9.638,1.755,0.463,-0.463,0.000,0.000,6,-0.002,0.032,791,1019,1249,908,2.838,9.430
743,0.000,-2.076,20.358,0.434,2.953,9.403,5.325,-2.867,14.447,-0.445,2.889,9.657,1.724,0.468,-0.468,0.000,0.000,6,-0.002,0.030,791,1020,1249,909,2.930,9.430
744,0.000,-2.076,20.380,0.434,2.886,9.384,5.570,-2.867,14.447,-0.423,2.869,9.703,1.572,0.470,-0.470,0.000,0.000,6,-0.002,0.030,790,1019,1249,910,2.838,9.430
745,0.000,-2.076,20.380,0.445,2.831,9.367,5.783,-2.867,14.425,-0.467,2.881,9.717,1.511,0.472,-0.472,0.000,0.000,6,-0.002,0.029,791,1019,1249,909,2.838,9.339
746,0.000,-2.076,20.402,0.456,2.838,9.379,5.997,-2.867,14.403,-0.467,2.889,9.741,1.328,0.472,-0.472,0.000,0.000,6,-0.002,0.030,790,1019,1248,908,2.930,9.339
747,0.000,-2.076,20.402,0.456,2.831,9.387,6.058,-2.867,14.403,-0.445,2.877,9.758,1.053,0.474,-0.474,0.000,0.000,6,-0.002,0.033,791,1018,1248,909,2.930,9.339
748,0.000,-2.076,20.424,0.456,2.793,9.339,5.966,-2.867,14.381,-0.478,2.934,9.770,0.778,0.479,-0.479,0.000,0.000,6,-0.002,0.040,791,1019,1249,910,2.838,9.339
749,0.000,-2.076,20.446,0.467,2.711,9.324,6.058,-2.867,14.359,-0.467,2.953,9.815,0.381,0.493,-0.493,0.000,0.000,6,-0.002,0.043,791,1020,1249,909,2.747,9.339
750,0.000,-2.076,20.446,0.478,2.733,9.334,6.302,-2.889,14.337,-0.467,2.934,9.873,0.046,0.509,-0.509,0.000,0.000,6,-0.002,0.046,791,1020,1248,908,2.838,9.339
751,0.000,-2.076,20.468,0.467,2.769,9.320,6.516,-2.889,14.315,-0.467,2.956,9.928,-0.137,0.530,-0.530,0.000,0.000,6,-0.002,0.048,790,1019,1248,908,2.747,9.339
752,0.000,-2.076,20.490,0.467,2.735,9.320,6.577,-2.889,14.315,-0.500,2.958,9.964,-0.504,0.552,-0.552,0.000,0.000,6,-0.003,0.048,791,1020,1248,909,2.747,9.339
753,0.000,-2.076,20.490,0.467,2.692,9.303,6.790,-2.911,14.293,-0.511,2.972,9.952,-0.870,0.572,-0.572,0.000,0.000,6,-0.002,0.047,791,1019,1248,909,2.655,9.247
754,0.000,-2.076,20.512,0.511,2.692,9.231,6.790,-2.911,14.271,-0.533,2.996,9.995,-1.328,0.590,-0.590,0.000,0.000,6,-0.002,0.046,791,1019,1249,909,2.655,9.247
755,0.000,-2.076,20.534,0.522,2.747,9.197,6.729,-2.911,14.249,-0.544,2.949,10.052,-1.785,0.607,-0.607,0.000,0.000,6,-0.002,0.046,791,1019,1248,909,2.747,9.247
756,0.000,-2.076,20.556,0.511,2.702,9.226,6.943,-2.933,14.206,-0.566,2.963,10.052,-2.518,0.621,-0.621,0.000,0.000,6,-0.002,0.046,791,1019,1248,908,2.655,9.247
757,0.000,-2.076,20.578,0.555,2.692,9.236,7.187,-2.955,14.184,-0.599,2.994,10.028,-3.006,0.636,-0.636,0.000,0.000,6,-0.001,0.048,792,1020,1248,909,2.655,9.247
758,0.000,-2.054,20.600,0.577,2.826,9.243,7.584,-2.955,14.162,-0.599,3.006,10.026,-3.433,0.652,-0.652,0.000,0.000,6,-0.001,0.049,792,1019,1248,908,2.655,9.155
759,0.000,-2.054,20.622,0.599,2.896,9.250,7.858,-2.955,14.140,-0.632,3.083,10.014,-3.799,0.668,-0.668,0.000,0.000,6,-0.001,0.049,792,1019,1248,909,2.747,9.155
760,0.000,-2.033,20.622,0.599,2.855,9.229,8.103,-2.955,14.118,-0.643,3.159,9.947,-4.440,0.683,-0.683,0.000,0.000,6,-0.002,0.047,792,1020,1248,909,2.655,9.155
761,0.000,-2.011,20.666,0.643,2.807,9.205,8.194,-2.955,14.074,-0.643,3.205,9.897,-5.020,0.696,-0.696,0.000,0.000,6,-0.001,0.046,792,1019,1248,908,2.655,9.155
762,0.000,-1.989,20.688,0.632,2.623,9.178,8.469,-2.933,14.052,-0.687,3.253,9.887,-5.539,0.706,-0.706,0.000,0.000,6,-0.001,0.045,792,1019,1248,909,2.747,9.155
763,0.000,-2.011,20.710,0.654,2.503,9.142,8.652,-2.933,14.008,-0.687,3.281,9.909,-5.844,0.715,-0.715,0.000,0.000,6,-0.001,0.045,792,1020,1248,909,2.838,9.247
764,0.000,-2.011,20.732,0.676,2.448,9.169,8.835,-2.911,13.986,-0.687,3.327,9.909,-6.088,0.725,-0.725,0.000,0.000,6,-0.001,0.045,792,1019,1249,909,2.838,9.155
765,0.000,-2.033,20.753,0.676,2.379,9.150,8.743,-2.889,13.942,-0.731,3.451,9.877,-6.485,0.733,-0.733,0.000,0.000,6,-0.002,0.046,792,1020,1248,909,2.747,9.155
766,0.000,-2.054,20.797,0.698,2.297,9.087,8.530,-2.867,13.920,-0.720,3.466,9.868,-6.851,0.742,-0.742,0.000,0.000,6,-0.001,0.046,792,1020,1248,908,2.564,9.155
767,0.000,-2.076,20.819,0.720,2.307,9.087,8.469,-2.824,13.876,-0.731,3.557,9.813,-6.973,0.749,-0.749,0.000,0.000,6,-0.001,0.047,792,1020,1248,909,2.472,9.064
768,0.000,-2.098,20.841,0.720,2.364,9.061,8.408,-2.780,13.854,-0.731,3.655,9.765,-6.912,0.759,-0.759,0.000,0.000,6,-0.001,0.049,794,1020,1248,908,2.380,9.155
769,0.000,-2.120,20.885,0.720,2.297,8.934,8.286,-2.736,13.810,-0.742,3.736,9.717,-6.851,0.769,-0.769,0.000,0.000,6,-0.001,0.049,792,1020,1249,909,2.289,9.064
770,0.000,-2.142,20.907,0.731,2.252,8.939,8.225,-2.670,13.788,-0.753,3.830,9.602,-6.760,0.780,-0.780,0.000,0.000,6,-0.001,0.048,792,1020,1249,908,2.289,9.064
771,0.000,-2.164,20.929,0.720,2.235,8.963,8.164,-2.604,13.766,-0.753,3.794,9.583,-6.455,0.788,-0.788,0.000,0.000,6,-0.001,0.047,792,1020,1248,908,2.289,9.064
772,0.000,-2.186,20.973,0.764,2.170,8.879,8.225,-2.538,13.722,-0.775,3.827,9.607,-5.997,0.795,-0.795,0.000,0.000,6,-0.002,0.046,793,1019,1248,908,2.289,8.972
773,0.000,-2.208,20.995,0.775,2.182,8.872,8.133,-2.472,13.700,-0.786,3.844,9.561,-5.509,0.801,-0.801,0.000,0.000,6,-0.002,0.046,793,1020,1249,908,2.289,8.881
774,0.000,-2.230,21.017,0.786,2.142,8.850,8.011,-2.384,13.678,-0.786,3.863,9.533,-5.020,0.806,-0.806,0.000,0.000,6,-0.002,0.045,793,1020,1248,909,2.197,8.881
775,0.000,-2.252,21.061,0.775,2.151,8.843,8.042,-2.318,13.656,-0.797,3.899,9.545,-4.501,0.810,-0.810,0.000,0.000,6,-0.002,0.044,793,1020,1247,908,2.197,8.881
776,0.000,-2.296,21.083,0.786,2.173,8.881,8.133,-2.252,13.612,-0.797,3.870,9.506,-3.861,0.813,-0.813,0.000,0.000,6,-0.002,0.043,793,1020,1248,908,2.106,8.789
777,0.000,-2.318,21.105,0.786,2.144,8.903,8.133,-2.186,13.590,-0.808,3.741,9.516,-3.403,0.813,-0.813,0.000,0.000,6,-0.002,0.042,793,1020,1250,909,2.106,8.789
778,0.000,-2.340,21.149,0.786,2.161,8.901,8.072,-2.142,13.568,-0.808,3.674,9.552,-3.067,0.813,-0.813,0.000,0.000,6,-0.002,0.041,794,1020,1249,908,2.106,8.789
779,0.000,-2.362,21.171,0.797,2.173,8.927,8.286,-2.120,13.546,-0.797,3.552,9.604,-2.823,0.812,-0.812,0.000,0.000,6,-0.002,0.040,793,1020,1247,910,2.106,8.789
780,0.000,-2.384,21.193,0.797,2.175,8.929,8.377,-2.076,13.502,-0.797,3.497,9.614,-2.487,0.810,-0.810,0.000,0.000,6,-0.002,0.040,795,1020,1248,909,2.106,8.881
781,0.000,-2.406,21.237,0.797,2.149,8.934,8.164,-2.076,13.480,-0.808,3.458,9.640,-2.274,0.807,-0.807,0.000,0.000,6,-0.002,0.042,794,1020,1248,908,2.106,8.881
782,0.000,-2.428,21.259,0.786,2.199,9.049,8.347,-2.054,13.458,-0.797,3.466,9.652,-2.090,0.807,-0.807,0.000,0.000,6,-0.002,0.045,794,1020,1248,908,2.106,8.881
783,0.000,-2.428,21.281,0.797,2.290,9.145,8.530,-2.033,13.436,-0.808,3.535,9.616,-1.846,0.811,-0.811,0.000,0.000,6,-0.002,0.047,794,1020,1248,910,2.106,8.881
784,0.000,-2.450,21.303,0.808,2.360,9.200,8.530,-2.011,13.393,-0.808,3.528,9.595,-1.694,0.817,-0.817,0.000,0.000,6,-0.002,0.047,794,1019,1248,908,2.106,8.881
785,0.000,-2.450,21.347,0.818,2.350,9.231,8.225,-2.011,13.371,-0.797,3.430,9.571,-1.450,0.823,-0.823,0.000,0.000,6,-0.002,0.045,794,1020,1248,907,2.106,8.881
786,0.000,-2.450,21.369,0.786,2.348,9.267,8.103,-1.989,13.349,-0.808,3.387,9.571,-1.297,0.826,-0.826,0.000,0.000,6,-0.001,0.044,794,1019,1248,909,2.197,8.972
787,0.000,-2.472,21.391,0.818,2.434,9.351,7.980,-1.989,13.327,-0.818,3.420,9.573,-1.236,0.828,-0.828,0.000,0.000,6,-0.002,0.044,794,1020,1248,909,2.289,9.064
788,0.000,-2.472,21.413,0.808,2.371,9.324,7.980,-1.989,13.283,-0.840,3.427,9.497,-1.144,0.830,-0.830,0.000,0.000,6,-0.002,0.044,795,1020,1248,908,2.289,9.155
789,0.000,-2.472,21.435,0.808,2.350,9.336,7.889,-1.967,13.261,-0.829,3.372,9.449,-1.205,0.831,-0.831,0.000,0.000,6,-0.001,0.043,795,1020,1248,906,2.289,9.155
790,0.000,-2.494,21.457,0.829,2.436,9.449,7.706,-1.967,13.239,-0.818,3.403,9.458,-1.175,0.831,-0.831,0.000,0.000,6,-0.001,0.043,793,1020,1248,908,2.289,9.247
791,0.000,-2.494,21.479,0.818,2.376,9.432,7.401,-1.945,13.217,-0.818,3.435,9.382,-0.870,0.831,-0.831,0.000,0.000,6,-0.002,0.042,795,1021,1248,909,2.380,9.339
792,0.000,-2.516,21.501,0.818,2.376,9.406,7.065,-1.945,13.173,-0.829,3.399,9.355,-0.900,0.829,-0.829,0.000,0.000,6,-0.001,0.042,795,1020,1248,908,2.289,9.247
793,0.000,-2.516,21.523,0.818,2.494,9.432,6.699,-1.923,13.151,-0.818,3.408,9.375,-0.778,0.828,-0.828,0.000,0.000,6,-0.001,0.045,796,1020,1248,908,2.289,9.247
794,0.000,-2.516,21.545,0.818,2.479,9.444,6.271,-1.923,13.129,-0.818,3.437,9.308,-0.381,0.831,-0.831,0.000,0.000,6,-0.002,0.049,796,1020,1248,909,2.380,9.430
795,0.000,-2.516,21.545,0.829,2.544,9.449,5.783,-1.901,13.107,-0.829,3.415,9.229,-0.046,0.839,-0.839,0.000,0.000,6,-0.002,0.050,796,1020,1248,908,2.289,9.430
796,0.000,-2.516,21.566,0.797,2.640,9.439,5.356,-1.879,13.085,-0.818,3.418,9.164,0.381,0.847,-0.847,0.000,0.000,6,-0.001,0.050,796,1020,1248,908,2.289,9.339
797,0.000,-2.494,21.588,0.829,2.577,9.320,4.898,-1.857,13.085,-0.840,3.408,9.097,0.992,0.856,-0.856,0.000,0.000,6,-0.001,0.053,796,1020,1248,908,2.472,9.430
798,0.000,-2.494,21.588,0.808,2.678,9.329,4.532,-1.835,13.063,-0.840,3.358,9.013,1.541,0.867,-0.867,0.000,0.000,6,-0.002,0.058,796,1020,1248,908,2.472,9.430
799,0.000,-2.472,21.610,0.818,2.702,9.248,4.105,-1.791,13.041,-0.840,3.348,8.970,2.243,0.883,-0.883,0.000,0.000,6,-0.002,0.062,797,1021,1248,908,2.472,9.430
800,0.000,-2.450,21.610,0.829,2.647,9.195,3.647,-1.769,13.041,-0.862,3.288,8.996,2.976,0.905,-0.905,0.000,0.000,6,-0.002,0.066,797,1020,1248,908,2.564,9.430
801,0.000,-2.428,21.632,0.840,2.577,9.224,3.220,-1.769,13.019,-0.884,3.181,8.999,3.708,0.930,-0.930,0.000,0.000,6,-0.002,0.072,797,1020,1248,908,2.564,9.247
802,0.000,-2.428,21.632,0.851,2.685,9.255,2.884,-1.769,12.997,-0.895,3.054,8.982,4.227,0.962,-0.962,0.000,0.000,6,-0.002,0.083,797,1020,1248,909,2.655,9.247
803,0.000,-2.384,21.632,0.895,2.836,9.300,2.701,-1.791,12.997,-0.895,2.920,8.980,4.685,1.006,-1.006,0.000,0.000,6,-0.001,0.095,796,1021,1248,909,2.655,9.247
804,0.000,-2.362,21.654,0.895,2.920,9.379,2.579,-1.813,12.975,-0.950,2.755,8.996,5.051,1.062,-1.062,0.000,0.000,6,-0.001,0.103,796,1020,1248,909,2.564,9.155
805,0.000,-2.318,21.654,0.917,3.056,9.451,2.487,-1.857,12.975,-0.972,2.577,9.008,5.417,1.125,-1.125,0.000,0.000,6,-0.001,0.103,796,1020,1248,908,2.564,9.155
806,0.000,-2.274,21.654,0.961,3.090,9.466,2.426,-1.923,12.975,-1.038,2.455,9.035,5.600,1.185,-1.185,0.000,0.000,6,-0.002,0.101,797,1020,1247,908,2.655,9.247
807,0.000,-2.208,21.676,0.983,3.140,9.554,2.640,-2.011,12.953,-1.082,2.340,9.099,5.631,1.240,-1.240,0.000,0.000,6,-0.002,0.100,798,1020,1248,908,2.747,9.247
808,0.000,-2.164,21.676,1.060,3.269,9.660,3.098,-2.098,12.931,-1.137,2.245,9.159,5.447,1.291,-1.291,0.000,0.000,6,-0.002,0.101,796,1020,1248,909,2.838,9.339
809,0.000,-2.098,21.698,1.126,3.334,9.739,3.311,-2.208,12.931,-1.214,2.127,9.202,5.173,1.341,-1.341,0.000,0.000,6,-0.002,0.104,796,1020,1248,908,3.021,9.430
810,0.000,-2.011,21.720,1.203,3.485,9.853,3.799,-2.340,12.909,-1.258,1.931,9.260,4.532,1.391,-1.391,0.000,0.000,6,-0.001,0.105,797,1020,1247,908,3.021,9.430
811,0.000,-1.923,21.742,1.225,3.712,10.043,4.349,-2.494,12.887,-1.313,1.754,9.372,3.708,1.442,-1.442,0.000,0.000,6,-0.002,0.104,796,1020,1248,908,3.113,9.522
812,0.000,-1.835,21.742,1.291,3.820,10.191,5.234,-2.670,12.843,-1.357,1.622,9.475,2.701,1.488,-1.488,0.000,0.000,6,-0.001,0.103,797,1020,1249,908,3.204,9.613
813,0.000,-1.725,21.786,1.313,3.964,10.354,6.180,-2.846,12.821,-1.412,1.505,9.535,1.450,1.530,-1.530,0.000,0.000,6,-0.001,0.102,796,1020,1248,909,3.296,9.705
814,0.000,-1.615,21.808,1.357,4.114,10.543,7.553,-3.043,12.777,-1.456,1.399,9.672,-0.198,1.569,-1.569,0.000,0.000,6,-0.001,0.100,796,1020,1247,908,3.479,9.796
815,0.000,-1.505,21.852,1.434,4.160,10.679,8.896,-3.263,12.733,-1.500,1.375,9.827,-1.968,1.604,-1.604,0.000,0.000,6,-0.000,0.098,796,1020,1247,908,3.662,9.979
816,0.000,-1.395,21.896,1.467,4.064,10.809,10.483,-3.483,12.689,-1.544,1.375,9.909,-4.044,1.634,-1.634,0.000,0.000,6,-0.001,0.097,796,1019,1249,909,3.754,10.163
817,0.000,-1.285,21.940,1.511,4.002,10.991,12.436,-3.702,12.623,-1.577,1.258,10.047,-6.455,1.661,-1.661,0.000,0.000,6,-0.001,0.095,796,1020,1247,908,3.937,10.346
818,0.000,-1.176,21.984,1.533,4.081,11.130,14.511,-3.944,12.558,-1.631,1.064,10.263,-9.232,1.685,-1.685,0.000,0.000,6,-0.000,0.094,796,1020,1246,910,4.028,10.529
819,0.000,-1.088,22.050,1.599,4.296,11.194,17.258,-4.208,12.492,-1.631,1.241,10.481,-12.619,1.706,-1.706,0.000,0.000,6,-0.000,0.092,798,1020,1247,909,4.120,10.620
820,0.000,-0.956,22.116,1.621,4.799,11.283,19.791,-4.428,12.404,-1.664,1.591,10.466,-15.244,1.724,-1.724,0.000,0.000,6,-0.000,0.090,796,1020,1248,908,4.028,10.803
821,0.000,-0.802,22.182,1.642,5.812,11.355,23.056,-4.603,12.338,-1.675,1.790,10.440,-17.746,1.738,-1.738,0.000,0.000,6,-0.000,0.089,797,1020,1248,908,3.937,10.986
822,0.000,-0.626,22.248,1.675,6.973,11.427,26.383,-4.779,12.250,-1.686,2.235,10.383,-20.096,1.750,-1.750,0.000,0.000,6,-0.000,0.087,797,1020,1248,909,4.028,11.078
823,0.000,-0.450,22.336,1.708,7.002,11.209,29.374,-4.889,12.162,-1.730,2.764,10.203,-21.988,1.759,-1.759,0.000,0.000,6,-0.000,0.086,796,1020,1247,909,4.211,11.170
824,0.000,-0.297,22.401,1.697,5.824,10.909,31.418,-4.955,12.074,-1.730,3.006,10.091,-24.033,1.767,-1.767,0.000,0.000,6,-0.000,0.084,796,1020,1247,909,4.761,11.261
825,0.000,-0.187,22.489,1.719,4.567,10.773,33.585,-4.999,11.986,-1.752,3.214,10.088,-25.437,1.772,-1.772,0.000,0.000,6,0.000,0.085,797,1019,1247,910,5.768,11.353
826,0.000,-0.121,22.577,1.730,3.279,10.261,35.294,-5.021,11.876,-1.752,3.509,9.846,-26.566,1.778,-1.778,0.000,0.000,6,-0.000,0.084,797,1020,1247,911,6.958,11.353
827,0.000,-0.077,22.665,1.741,2.585,9.925,36.271,-4.999,11.789,-1.752,4.126,9.631,-27.146,1.781,-1.781,0.000,0.000,6,0.000,0.082,797,1020,1248,910,6.958,11.170
828,0.000,-0.033,22.753,1.763,2.472,10.081,36.637,-4.955,11.679,-1.785,4.399,10.021,-27.695,1.783,-1.783,0.000,0.000,6,0.000,0.082,797,1020,1248,908,5.768,10.895
829,0.000,0.000,22.841,1.752,2.120,9.980,36.576,-4.911,11.591,-1.763,4.730,10.565,-28.611,1.784,-1.784,0.000,0.000,6,0.000,0.083,796,1020,1248,909,4.486,10.712
830,0.000,0.000,22.929,1.752,1.701,9.569,36.240,-4.845,11.503,-1.774,5.374,10.646,-29.160,1.788,-1.788,0.000,0.000,6,0.000,0.086,797,1021,1248,910,3.204,10.254
831,0.000,0.011,23.017,1.763,1.318,9.279,35.874,-4.779,11.393,-1.796,5.364,10.531,-29.374,1.793,-1.793,0.000,0.000,6,0.000,0.088,797,1019,1248,909,2.564,9.888
832,0.000,0.033,23.105,1.774,0.394,9.071,35.050,-4.713,11.305,-1.774,5.436,10.375,-29.160,1.802,-1.802,0.000,0.000,6,0.000,0.087,797,1020,1249,910,2.472,10.071
833,0.000,0.033,23.192,1.774,-0.016,8.838,33.951,-4.647,11.217,-1.752,5.989,10.076,-28.061,1.809,-1.809,0.000,0.000,6,0.000,0.087,797,1020,1248,910,2.106,9.979
834,0.000,0.033,23.280,1.796,0.190,8.793,32.761,-4.559,11.129,-1.774,6.303,9.853,-26.200,1.815,-1.815,0.000,0.000,6,0.000,0.086,797,1020,1248,909,1.648,9.522
835,0.000,0.033,23.368,1.774,0.329,8.649,31.601,-4.493,11.041,-1.785,5.917,9.918,-25.132,1.820,-1.820,0.000,0.000,6,0.000,0.085,797,1020,1249,910,1.282,9.247
836,0.000,0.033,23.434,1.796,0.530,8.415,30.137,-4.450,10.976,-1.796,5.841,10.229,-24.155,1.823,-1.823,0.000,0.000,6,0.001,0.087,798,1020,1249,909,0.366,9.064
837,0.000,0.033,23.522,1.818,1.285,8.369,28.702,-4.428,10.888,-1.829,5.920,10.447,-23.239,1.829,-1.829,0.000,0.000,6,0.000,0.086,798,1020,1249,910,0.000,8.789
838,0.000,0.055,23.588,1.796,1.826,8.486,27.695,-4.428,10.822,-1.796,5.659,10.340,-22.049,1.832,-1.832,0.000,0.000,6,0.000,0.085,798,1020,1248,910,0.183,8.789
839,0.000,0.077,23.654,1.829,1.483,8.168,26.658,-4.406,10.756,-1.818,5.661,10.299,-20.401,1.834,-1.834,0.000,0.000,6,0.000,0.083,798,1020,1249,909,0.275,8.606
840,0.000,0.099,23.720,1.807,1.177,7.720,25.406,-4.406,10.668,-1.807,5.757,10.301,-18.326,1.835,-1.835,0.000,0.000,6,0.000,0.084,799,1020,1248,909,0.458,8.331
841,0.000,0.121,23.764,1.818,1.323,7.565,23.789,-4.406,10.602,-1.840,5.762,10.052,-16.495,1.836,-1.836,0.000,0.000,6,0.000,0.084,798,1020,1249,909,1.282,8.331
842,0.000,0.121,23.830,1.829,1.129,7.601,22.599,-4.406,10.558,-1.829,5.393,10.023,-14.755,1.837,-1.837,0.000,0.000,6,0.000,0.083,798,1021,1249,909,1.740,8.423
843,0.000,0.121,23.874,1.818,0.688,7.304,21.500,-4.406,10.492,-1.840,5.522,9.995,-12.558,1.837,-1.837,0.000,0.000,6,0.000,0.081,799,1020,1248,909,1.465,8.148
844,0.000,0.121,23.918,1.818,0.413,6.985,20.493,-4.406,10.448,-1.829,5.747,9.803,-9.934,1.834,-1.834,0.000,0.000,6,0.001,0.080,798,1020,1248,909,1.099,7.691
845,0.000,0.121,23.984,1.829,0.470,7.134,19.608,-4.406,10.382,-1.785,5.252,9.786,-7.279,1.831,-1.831,0.000,0.000,6,0.000,0.079,799,1020,1248,909,1.282,7.507
846,0.000,0.121,24.027,1.829,0.854,7.165,19.242,-4.406,10.338,-1.818,4.720,9.825,-5.325,1.825,-1.825,0.000,0.000,6,0.000,0.077,800,1020,1248,909,1.099,7.599
847,0.000,0.121,24.071,1.829,1.103,7.114,18.723,-4.428,10.294,-1.829,4.361,9.734,-3.403,1.818,-1.818,0.000,0.000,6,0.000,0.075,799,1021,1249,910,0.641,7.233
848,0.000,0.121,24.115,1.829,0.985,7.141,18.112,-4.450,10.250,-1.818,4.191,9.727,-1.724,1.809,-1.809,0.000,0.000,6,0.000,0.073,799,1020,1249,909,0.366,6.958
849,0.000,0.121,24.159,1.807,0.777,7.155,17.319,-4.472,10.206,-1.796,3.712,9.858,-0.656,1.798,-1.798,0.000,0.000,6,0.000,0.073,799,1020,1248,909,0.458,7.050
850,0.000,0.121,24.203,1.818,0.719,7.205,16.403,-4.515,10.163,-1.796,3.384,10.012,0.381,1.787,-1.787,0.000,0.000,6,0.001,0.072,799,1020,1248,909,0.824,7.141
851,0.000,0.121,24.247,1.807,0.533,7.311,15.152,-4.559,10.119,-1.796,3.470,9.882,1.297,1.775,-1.775,0.000,0.000,6,0.000,0.071,800,1020,1249,909,1.099,7.050
852,0.000,0.121,24.291,1.785,0.674,7.612,13.993,-4.581,10.075,-1.774,3.468,9.688,2.426,1.762,-1.762,0.000,0.000,6,0.001,0.070,800,1020,1248,909,0.916,7.141
853,0.000,0.121,24.335,1.796,1.021,7.885,13.016,-4.625,10.053,-1.763,3.530,9.674,3.525,1.750,-1.750,0.000,0.000,6,0.001,0.072,800,1021,1248,909,0.732,7.141
854,0.000,0.121,24.379,1.785,0.882,7.996,11.398,-4.647,10.009,-1.774,3.583,9.458,4.593,1.740,-1.740,0.000,0.000,6,0.001,0.076,800,1020,1247,909,0.641,7.141
855,0.000,0.099,24.423,1.774,0.834,8.297,9.873,-4.669,9.987,-1.741,3.607,9.128,5.936,1.735,-1.735,0.000,0.000,6,0.000,0.082,800,1020,1249,909,0.458,7.233
856,0.000,0.099,24.445,1.752,0.846,8.592,8.225,-4.691,9.965,-1.741,3.664,8.939,7.065,1.738,-1.738,0.000,0.000,6,0.000,0.089,801,1020,1248,908,0.641,7.599
857,0.000,0.099,24.489,1.741,0.818,8.745,6.699,-4.713,9.943,-1.730,3.545,8.807,8.255,1.750,-1.750,0.000,0.000,6,0.000,0.096,800,1020,1247,910,1.007,7.874
858,0.000,0.099,24.511,1.741,0.875,8.891,5.173,-4.735,9.921,-1.741,3.121,8.673,9.323,1.770,-1.770,0.000,0.000,6,0.000,0.102,802,1020,1247,910,0.824,7.965
859,0.000,0.099,24.533,1.719,0.976,9.097,3.738,-4.757,9.899,-1.719,2.731,8.520,10.239,1.797,-1.797,0.000,0.000,6,0.000,0.107,801,1020,1247,909,0.824,8.240
860,0.000,0.077,24.555,1.741,1.225,9.327,2.609,-4.779,9.899,-1.752,2.051,8.269,11.215,1.829,-1.829,0.000,0.000,6,0.000,0.112,801,1021,1247,910,0.824,8.515
861,0.000,0.077,24.577,1.730,1.665,9.497,1.663,-4.823,9.877,-1.785,1.893,8.242,11.917,1.865,-1.865,0.000,0.000,6,0.000,0.116,801,1020,1247,911,0.732,8.698
862,0.000,0.077,24.599,1.785,2.079,9.612,0.626,-4.867,9.877,-1.818,1.725,8.211,12.650,1.906,-1.906,0.000,0.000,6,0.000,0.116,801,1020,1246,911,0.824,8.881
863,0.000,0.099,24.599,1.774,2.271,9.786,-0.137,-4.911,9.877,-1.851,1.498,8.182,13.169,1.943,-1.943,0.000,0.000,6,0.000,0.115,800,1020,1246,910,0.916,9.064
864,0.000,0.099,24.621,1.818,2.340,9.961,-0.870,-4.955,9.877,-1.873,1.026,8.235,13.504,1.978,-1.978,0.000,0.000,6,0.000,0.116,801,1020,1246,912,1.190,9.247
865,0.000,0.099,24.621,1.873,2.532,10.026,-1.328,-5.021,9.877,-1.906,0.521,8.276,13.443,2.012,-2.012,0.000,0.000,6,0.000,0.121,801,1020,1245,912,1.648,9.430
866,0.000,0.121,24.643,1.917,2.795,10.153,-1.572,-5.087,9.855,-1.950,0.152,8.352,13.016,2.051,-2.051,0.000,0.000,6,0.000,0.121,801,1020,1246,911,2.014,9.522
867,0.000,0.143,24.665,1.928,3.492,10.474,-1.846,-5.175,9.855,-1.994,-0.126,8.398,12.467,2.088,-2.088,0.000,0.000,6,0.000,0.119,802,1020,1245,911,2.197,9.705
868,0.000,0.165,24.665,1.950,3.925,10.565,-1.755,-5.263,9.855,-2.016,-0.329,8.486,11.765,2.120,-2.120,0.000,0.000,6,0.000,0.118,801,1020,1245,911,2.289,9.888
869,0.000,0.187,24.687,2.016,4.323,10.703,-1.022,-5.350,9.833,-2.060,-0.473,8.601,10.758,2.149,-2.149,0.000,0.000,6,0.000,0.117,802,1020,1246,913,2.472,9.979
870,0.000,0.231,24.687,2.027,4.531,10.835,-0.137,-5.438,9.833,-2.104,-0.559,8.652,9.598,2.176,-2.176,0.000,0.000,6,0.000,0.116,802,1020,1245,912,2.747,10.071
871,0.000,0.275,24.709,2.093,4.615,10.938,0.656,-5.526,9.811,-2.126,-0.552,8.692,8.133,2.201,-2.201,0.000,0.000,6,0.001,0.115,802,1020,1246,912,3.479,10.437
872,0.000,0.319,24.731,2.115,4.715,11.053,1.389,-5.636,9.789,-2.159,-0.585,8.723,6.699,2.222,-2.222,0.000,0.000,6,0.000,0.113,802,1020,1246,912,3.845,10.529
873,0.000,0.363,24.753,2.137,4.802,11.161,2.243,-5.724,9.767,-2.159,-0.674,8.790,5.173,2.240,-2.240,0.000,0.000,6,0.000,0.112,802,1020,1245,912,4.303,10.620
874,0.000,0.407,24.775,2.159,4.902,11.261,3.250,-5.834,9.745,-2.203,-0.595,8.834,3.433,2.256,-2.256,0.000,0.000,6,0.000,0.115,803,1020,1245,912,4.486,10.803
875,0.000,0.472,24.797,2.170,4.981,11.338,4.532,-5.922,9.723,-2.214,-0.497,8.881,1.694,2.276,-2.276,0.000,0.000,6,0.000,0.115,803,1020,1245,912,4.578,10.895
876,0.000,0.516,24.840,2.203,4.897,11.388,5.661,-6.032,9.701,-2.247,-0.382,8.932,-0.259,2.294,-2.294,0.000,0.000,6,0.000,0.114,803,1020,1245,913,4.669,10.986
877,0.000,0.560,24.862,2.247,4.754,11.381,6.516,-6.119,9.657,-2.258,-0.140,8.965,-1.999,2.309,-2.309,0.000,0.000,6,-0.000,0.112,804,1020,1245,913,4.761,11.078
878,0.000,0.604,24.906,2.258,4.639,11.395,7.492,-6.207,9.613,-2.280,0.111,8.996,-3.830,2.321,-2.321,0.000,0.000,6,-0.000,0.110,804,1020,1245,913,4.852,11.261
879,0.000,0.670,24.950,2.269,4.553,11.407,8.438,-6.295,9.569,-2.302,0.269,9.059,-5.661,2.331,-2.331,0.000,0.000,6,0.000,0.108,804,1020,1245,913,4.944,11.261
880,0.000,0.714,24.972,2.291,4.435,11.362,9.201,-6.383,9.525,-2.302,0.315,9.128,-7.492,2.338,-2.338,0.000,0.000,6,-0.000,0.106,804,1020,1245,913,4.852,11.353
881,0.000,0.758,25.016,2.324,4.464,11.326,9.842,-6.471,9.481,-2.313,0.382,9.217,-9.537,2.341,-2.341,0.000,0.000,6,-0.000,0.105,804,1022,1245,914,4.669,11.353
882,0.000,0.802,25.060,2.302,4.522,11.180,10.483,-6.559,9.437,-2.302,0.458,9.332,-11.551,2.344,-2.344,0.000,0.000,6,-0.000,0.104,804,1020,1245,914,4.578,11.353
883,0.000,0.846,25.082,2.324,4.414,10.981,11.093,-6.647,9.371,-2.324,0.624,9.425,-13.382,2.345,-2.345,0.000,0.000,6,-0.000,0.103,805,1020,1244,914,4.486,11.353
884,0.000,0.912,25.126,2.324,4.433,10.893,11.643,-6.735,9.328,-2.313,0.935,9.559,-14.939,2.344,-2.344,0.000,0.000,6,-0.000,0.102,805,1021,1244,914,4.395,11.353
885,0.000,0.956,25.170,2.357,4.299,10.639,11.887,-6.801,9.262,-2.346,1.263,9.640,-16.403,2.342,-2.342,0.000,0.000,6,-0.000,0.100,806,1021,1244,913,4.395,11.261
886,0.000,1.000,25.214,2.324,4.081,10.359,12.100,-6.867,9.196,-2.335,1.529,9.679,-17.655,2.338,-2.338,0.000,0.000,6,0.000,0.099,805,1021,1245,914,4.486,11.170
887,0.000,1.044,25.258,2.324,4.028,10.313,12.253,-6.932,9.152,-2.346,1.756,9.676,-18.753,2.333,-2.333,0.000,0.000,6,0.000,0.100,805,1021,1245,914,4.395,10.895
888,0.000,1.088,25.280,2.324,3.861,10.138,12.253,-6.998,9.086,-2.346,1.847,9.676,-19.364,2.329,-2.329,0.000,0.000,6,0.000,0.103,806,1021,1244,914,4.395,10.803
889,0.000,1.132,25.324,2.335,3.537,9.798,12.070,-7.042,9.042,-2.324,2.233,9.660,-19.577,2.329,-2.329,0.000,0.000,6,0.000,0.105,806,1021,1244,914,4.211,10.620
890,0.000,1.176,25.368,2.324,3.245,9.604,11.978,-7.086,8.998,-2.324,3.085,9.468,-19.089,2.331,-2.331,0.000,0.000,6,0.000,0.108,806,1021,1245,914,4.028,10.346
891,0.000,1.198,25.390,2.313,3.107,9.446,11.917,-7.108,8.932,-2.324,3.413,9.346,-18.357,2.338,-2.338,0.000,0.000,6,-0.000,0.109,806,1021,1244,915,4.028,10.254
892,0.000,1.241,25.434,2.313,3.011,9.209,11.826,-7.130,8.888,-2.335,3.394,9.293,-17.136,2.345,-2.345,0.000,0.000,6,-0.000,0.107,806,1020,1243,915,3.845,10.071
893,0.000,1.263,25.478,2.324,2.989,9.023,11.734,-7.152,8.844,-2.324,3.657,9.200,-15.671,2.350,-2.350,0.000,0.000,6,-0.000,0.106,807,1021,1244,915,3.479,9.796
894,0.000,1.307,25.500,2.313,2.793,8.920,11.673,-7.152,8.822,-2.335,3.770,9.212,-14.145,2.353,-2.353,0.000,0.000,6,-0.000,0.106,807,1021,1245,915,3.204,9.522
895,0.000,1.329,25.544,2.313,2.501,8.810,11.551,-7.174,8.778,-2.335,3.418,9.367,-13.077,2.356,-2.356,0.000,0.000,6,-0.000,0.108,807,1021,1244,915,3.021,9.430
896,0.000,1.351,25.588,2.357,2.395,8.608,11.124,-7.174,8.734,-2.335,2.927,9.648,-12.253,2.362,-2.362,0.000,0.000,6,0.000,0.111,807,1021,1242,916,2.930,9.155
897,0.000,1.373,25.610,2.346,2.168,8.434,10.452,-7.218,8.712,-2.368,2.644,9.655,-11.215,2.371,-2.371,0.000,0.000,6,0.000,0.113,809,1021,1242,916,2.930,8.972
898,0.000,1.395,25.653,2.357,1.783,8.482,9.537,-7.240,8.668,-2.346,2.443,9.655,-10.391,2.382,-2.382,0.000,0.000,6,0.000,0.113,808,1021,1243,914,2.747,8.881
899,0.000,1.395,25.675,2.357,1.318,8.438,8.774,-7.284,8.646,-2.357,2.300,9.822,-9.720,2.393,-2.393,0.000,0.000,6,0.000,0.114,808,1021,1243,915,2.472,8.789
900,0.000,1.395,25.697,2.357,1.361,8.197,8.072,-7.306,8.602,-2.368,2.345,9.899,-9.049,2.403,-2.403,0.000,0.000,6,0.001,0.114,809,1021,1243,916,2.380,8.606
901,0.000,1.395,25.719,2.368,1.646,8.211,7.492,-7.328,8.580,-2.368,2.565,9.899,-8.286,2.414,-2.414,0.000,0.000,6,0.001,0.114,809,1021,1242,915,2.106,8.423
902,0.000,1.417,25.763,2.390,1.974,8.525,6.668,-7.372,8.558,-2.401,2.585,9.880,-7.401,2.423,-2.423,0.000,0.000,6,0.002,0.114,808,1021,1242,914,1.740,8.423
903,0.000,1.417,25.785,2.368,2.156,8.484,5.905,-7.394,8.515,-2.423,2.486,9.865,-6.790,2.432,-2.432,0.000,0.000,6,0.002,0.113,809,1020,1242,916,1.282,8.423
904,0.000,1.439,25.807,2.379,1.948,8.563,5.417,-7.416,8.493,-2.423,2.558,9.731,-6.332,2.439,-2.439,0.000,0.000,6,0.002,0.112,810,1021,1242,916,1.282,8.148
905,0.000,1.461,25.829,2.401,1.591,8.656,4.868,-7.438,8.471,-2.412,2.714,9.662,-5.631,2.445,-2.445,0.000,0.000,6,0.002,0.110,810,1021,1242,915,1.556,8.148
906,0.000,1.461,25.851,2.412,1.474,8.687,4.013,-7.482,8.449,-2.434,2.661,9.640,-4.990,2.449,-2.449,0.000,0.000,6,0.003,0.108,810,1021,1241,915,1.923,8.515
907,0.000,1.461,25.873,2.412,1.632,8.733,3.250,-7.504,8.427,-2.434,2.546,9.571,-4.501,2.450,-2.450,0.000,0.000,6,0.003,0.106,809,1021,1241,916,2.106,8.423
908,0.000,1.461,25.895,2.444,1.876,8.879,2.823,-7.526,8.405,-2.423,2.494,9.458,-4.135,2.448,-2.448,0.000,0.000,6,0.002,0.107,811,1021,1241,917,1.923,8.515
909,0.000,1.483,25.939,2.434,2.053,9.035,2.701,-7.548,8.383,-2.444,2.467,9.375,-3.677,2.448,-2.448,0.000,0.000,6,0.002,0.114,811,1021,1241,916,1.556,8.606
910,0.000,1.505,25.961,2.444,2.051,9.087,2.365,-7.570,8.361,-2.434,2.360,9.351,-3.098,2.456,-2.456,0.000,0.000,6,0.003,0.123,810,1021,1242,915,1.465,8.606
911,0.000,1.527,25.983,2.455,1.957,9.178,1.877,-7.592,8.361,-2.434,2.328,9.293,-2.762,2.475,-2.475,0.000,0.000,6,0.002,0.130,811,1021,1241,916,1.556,8.698
912,0.000,1.527,26.005,2.434,1.929,9.291,1.602,-7.614,8.339,-2.444,2.352,9.231,-2.518,2.502,-2.502,0.000,0.000,6,0.003,0.132,811,1021,1240,916,1.831,8.789
913,0.000,1.549,26.027,2.444,1.823,9.346,1.205,-7.636,8.317,-2.466,2.233,9.219,-2.152,2.530,-2.530,0.000,0.000,6,0.003,0.131,811,1021,1240,916,2.014,8.972
914,0.000,1.549,26.049,2.455,1.646,9.375,0.687,-7.680,8.295,-2.510,2.125,9.209,-2.090,2.556,-2.556,0.000,0.000,6,0.003,0.130,811,1021,1239,915,2.014,9.064
915,0.000,1.549,26.071,2.477,1.622,9.367,0.000,-7.702,8.295,-2.532,2.185,9.147,-2.121,2.579,-2.579,0.000,0.000,6,0.002,0.128,812,1021,1240,916,1.923,9.155
916,0.000,1.571,26.093,2.488,1.871,9.463,-0.595,-7.724,8.273,-2.521,2.192,9.097,-1.968,2.598,-2.598,0.000,0.000,6,0.002,0.127,812,1021,1240,916,1.923,9.247
917,0.000,1.571,26.115,2.510,2.168,9.578,-0.931,-7.745,8.273,-2.565,2.000,9.128,-1.724,2.615,-2.615,0.000,0.000,6,0.002,0.127,812,1021,1239,916,1.740,9.339
918,0.000,1.593,26.137,2.543,2.388,9.597,-1.053,-7.767,8.251,-2.587,1.869,9.085,-1.907,2.632,-2.632,0.000,0.000,6,0.002,0.127,812,1021,1239,916,1.556,9.339
919,0.000,1.615,26.159,2.576,2.510,9.612,-1.083,-7.789,8.229,-2.609,1.749,9.013,-2.335,2.648,-2.648,0.000,0.000,6,0.002,0.128,812,1021,1239,916,1.556,9.339
920,0.000,1.637,26.181,2.576,2.632,9.631,-1.297,-7.833,8.229,-2.620,1.663,9.059,-2.670,2.664,-2.664,0.000,0.000,6,0.002,0.128,813,1021,1239,916,1.831,9.430
921,0.000,1.659,26.203,2.587,2.764,9.614,-1.205,-7.877,8.207,-2.631,1.610,9.102,-3.159,2.678,-2.678,0.000,0.000,6,0.002,0.127,813,1021,1239,916,2.106,9.522
922,0.000,1.703,26.247,2.620,2.790,9.604,-1.022,-7.899,8.185,-2.642,1.610,9.066,-3.677,2.691,-2.691,0.000,0.000,6,0.002,0.125,813,1021,1239,915,2.380,9.522
923,0.000,1.725,26.269,2.631,2.865,9.674,-0.565,-7.943,8.185,-2.664,1.569,9.054,-4.349,2.702,-2.702,0.000,0.000,6,0.002,0.124,814,1021,1238,916,2.472,9.522
924,0.000,1.769,26.291,2.664,2.872,9.741,0.000,-7.965,8.163,-2.675,1.529,9.078,-5.020,2.710,-2.710,0.000,0.000,6,0.003,0.122,815,1021,1238,915,2.564,9.613
925,0.000,1.791,26.313,2.664,2.872,9.705,0.473,-8.009,8.141,-2.686,1.605,9.066,-5.753,2.715,-2.715,0.000,0.000,6,0.003,0.120,814,1021,1239,916,2.747,9.613
926,0.000,1.835,26.357,2.697,2.972,9.686,0.748,-8.031,8.119,-2.686,1.696,9.035,-6.241,2.717,-2.717,0.000,0.000,6,0.004,0.119,814,1021,1239,915,2.747,9.522
927,0.000,1.857,26.379,2.697,3.011,9.712,1.236,-8.075,8.097,-2.708,1.785,9.016,-6.668,2.719,-2.719,0.000,0.000,6,0.004,0.120,815,1021,1238,915,2.838,9.613
928,0.000,1.901,26.423,2.697,2.903,9.691,1.663,-8.097,8.075,-2.697,1.768,9.063,-7.614,2.721,-2.721,0.000,0.000,6,0.005,0.120,814,1021,1237,915,2.838,9.705
929,0.000,1.945,26.444,2.697,2.807,9.648,1.877,-8.141,8.053,-2.708,1.706,9.049,-8.591,2.722,-2.722,0.000,0.000,6,0.005,0.123,815,1021,1238,915,2.838,9.705
930,0.000,1.967,26.488,2.708,2.779,9.564,1.968,-8.185,8.031,-2.719,1.694,9.049,-9.445,2.727,-2.727,0.000,0.000,6,0.005,0.127,815,1021,1238,915,2.930,9.613
931,0.000,2.011,26.510,2.708,2.831,9.549,2.274,-8.207,8.009,-2.719,1.821,9.142,-10.239,2.738,-2.738,0.000,0.000,6,0.005,0.129,816,1021,1236,916,2.930,9.705
932,0.000,2.054,26.554,2.697,2.865,9.571,2.579,-8.251,7.987,-2.719,1.988,9.176,-11.124,2.751,-2.751,0.000,0.000,6,0.005,0.128,816,1021,1237,915,2.838,9.613
933,0.000,2.098,26.598,2.708,2.733,9.497,2.640,-8.273,7.943,-2.719,2.089,9.159,-11.826,2.762,-2.762,0.000,0.000,6,0.005,0.126,816,1021,1239,915,2.747,9.613
934,0.000,2.120,26.642,2.697,2.740,9.449,2.853,-8.317,7.921,-2.730,2.151,9.214,-12.802,2.769,-2.769,0.000,0.000,6,0.006,0.127,816,1021,1237,914,2.747,9.522
935,0.000,2.164,26.664,2.719,2.802,9.434,2.853,-8.339,7.899,-2.730,2.075,9.250,-13.901,2.778,-2.778,0.000,0.000,6,0.005,0.132,817,1021,1235,916,2.747,9.522
936,0.000,2.208,26.708,2.730,2.678,9.341,2.548,-8.383,7.855,-2.741,1.988,9.233,-14.939,2.793,-2.793,0.000,0.000,6,0.005,0.138,818,1021,1236,916,2.838,9.522
937,0.000,2.252,26.752,2.752,2.599,9.162,2.426,-8.405,7.811,-2.763,1.974,9.327,-15.854,2.814,-2.814,0.000,0.000,6,0.005,0.138,817,1021,1236,914,2.655,9.430
938,0.000,2.296,26.796,2.763,2.537,9.092,2.426,-8.449,7.789,-2.774,2.149,9.370,-16.831,2.834,-2.834,0.000,0.000,6,0.004,0.136,818,1021,1237,915,2.655,9.430
939,0.000,2.340,26.840,2.774,2.587,9.075,2.609,-8.471,7.745,-2.785,2.383,9.315,-17.960,2.851,-2.851,0.000,0.000,6,0.004,0.135,818,1021,1236,915,2.747,9.430
940,0.000,2.384,26.884,2.785,2.668,9.030,2.701,-8.515,7.702,-2.818,2.427,9.315,-18.845,2.865,-2.865,0.000,0.000,6,0.003,0.133,818,1021,1236,914,2.655,9.339
941,0.000,2.428,26.928,2.807,2.690,8.982,2.823,-8.537,7.658,-2.829,2.448,9.315,-19.730,2.876,-2.876,0.000,0.000,6,0.003,0.131,818,1021,1236,913,2.564,9.155
942,0.000,2.472,26.972,2.818,2.601,8.989,3.037,-8.558,7.614,-2.840,2.606,9.257,-20.523,2.884,-2.884,0.000,0.000,6,0.003,0.130,818,1021,1235,915,2.472,9.064
943,0.000,2.516,27.016,2.840,2.446,8.846,3.159,-8.580,7.570,-2.862,2.716,9.288,-21.286,2.891,-2.891,0.000,0.000,6,0.002,0.132,819,1021,1235,915,2.564,9.064
944,0.000,2.560,27.060,2.851,2.276,8.788,3.098,-8.602,7.526,-2.873,2.970,9.229,-21.988,2.900,-2.900,0.000,0.000,6,0.001,0.137,819,1021,1235,914,2.655,8.972
945,0.000,2.604,27.104,2.862,2.213,8.877,2.945,-8.624,7.482,-2.884,3.367,9.205,-22.416,2.915,-2.915,0.000,0.000,6,0.002,0.140,819,1021,1235,912,2.655,8.972
946,0.000,2.648,27.170,2.873,2.132,8.795,2.976,-8.646,7.438,-2.884,3.602,9.154,-22.690,2.932,-2.932,0.000,0.000,6,0.001,0.140,819,1021,1234,914,2.564,8.972
947,0.000,2.692,27.214,2.884,2.027,8.683,3.037,-8.646,7.394,-2.895,3.590,9.111,-22.782,2.949,-2.949,0.000,0.000,6,0.000,0.138,820,1021,1235,914,2.380,8.789
948,0.000,2.736,27.257,2.873,1.976,8.618,2.853,-8.646,7.350,-2.906,3.815,8.965,-22.599,2.962,-2.962,0.000,0.000,6,0.000,0.136,820,1021,1234,913,2.197,8.698
949,0.000,2.758,27.301,2.895,1.888,8.625,2.609,-8.646,7.306,-2.939,3.976,8.872,-21.866,2.972,-2.972,0.000,0.000,6,0.000,0.134,821,1021,1234,913,2.197,8.789
950,0.000,2.802,27.367,2.928,1.687,8.551,2.029,-8.646,7.262,-2.950,3.868,8.958,-21.347,2.980,-2.980,0.000,0.000,6,-0.000,0.133,821,1021,1234,913,2.106,8.789
951,0.000,2.846,27.411,2.939,1.435,8.412,1.785,-8.646,7.218,-2.961,3.655,9.001,-21.134,2.984,-2.984,0.000,0.000,6,-0.000,0.130,821,1021,1233,913,2.014,8.606
952,0.000,2.867,27.455,2.961,1.344,8.376,1.389,-8.646,7.196,-2.961,3.468,9.013,-21.042,2.986,-2.986,0.000,0.000,6,-0.000,0.129,822,1020,1233,912,1.923,8.606
953,0.000,2.911,27.521,2.972,1.411,8.400,0.992,-8.668,7.152,-2.961,3.367,9.087,-21.042,2.986,-2.986,0.000,0.000,6,-0.000,0.127,822,1021,1233,913,1.831,8.606
954,0.000,2.955,27.565,2.983,1.500,8.371,0.748,-8.668,7.108,-2.961,3.391,9.253,-21.042,2.983,-2.983,0.000,0.000,6,-0.001,0.126,822,1021,1233,913,1.648,8.515
955,0.000,2.977,27.631,2.972,1.447,8.278,0.595,-8.690,7.064,-2.983,3.569,9.265,-20.920,2.981,-2.981,0.000,0.000,6,-0.001,0.127,823,1021,1232,912,1.373,8.331
956,0.000,3.021,27.675,2.983,1.366,8.264,0.290,-8.690,7.020,-2.961,3.765,9.171,-20.432,2.979,-2.979,0.000,0.000,6,-0.001,0.125,823,1021,1233,912,1.282,8.331
957,0.000,3.043,27.719,2.972,1.282,8.228,-0.259,-8.690,6.998,-2.983,3.968,9.166,-20.127,2.974,-2.974,0.000,0.000,6,-0.000,0.124,824,1021,1232,912,1.373,8.331
958,0.000,3.087,27.785,2.972,1.079,8.237,-1.114,-8.690,6.954,-2.961,3.901,9.164,-19.852,2.968,-2.968,0.000,0.000,6,-0.000,0.121,824,1021,1233,912,1.465,8.331
959,0.000,3.109,27.829,2.961,0.930,8.326,-2.121,-8.690,6.911,-2.961,3.825,9.145,-19.760,2.959,-2.959,0.000,0.000,6,-0.000,0.120,824,1022,1233,912,1.373,8.240
960,0.000,3.131,27.873,2.983,0.741,8.276,-3.098,-8.690,6.889,-2.972,3.901,9.138,-19.455,2.949,-2.949,0.000,0.000,6,0.000,0.118,824,1021,1232,911,1.282,8.240
961,0.000,3.153,27.917,2.961,0.772,8.189,-3.555,-8.690,6.845,-2.939,4.055,9.102,-18.814,2.938,-2.938,0.000,0.000,6,0.000,0.117,825,1021,1232,911,1.282,8.148
962,0.000,3.197,27.983,2.939,1.215,8.125,-3.708,-8.668,6.823,-2.939,4.150,9.023,-18.296,2.925,-2.925,0.000,0.000,6,0.000,0.115,825,1021,1232,911,1.007,8.148
963,0.000,3.219,28.027,2.961,1.560,8.132,-3.952,-8.668,6.779,-2.917,4.158,8.963,-17.563,2.909,-2.909,0.000,0.000,6,0.001,0.113,827,1021,1231,911,0.916,8.240
964,0.000,3.263,28.070,2.950,1.421,8.113,-4.623,-8.646,6.757,-2.917,4.234,8.862,-16.709,2.894,-2.894,0.000,0.000,6,0.000,0.112,825,1021,1232,911,0.732,8.240
965,0.000,3.307,28.114,2.939,0.964,8.020,-5.447,-8.646,6.735,-2.895,4.217,8.867,-15.793,2.877,-2.877,0.000,0.000,6,0.001,0.112,826,1021,1233,911,0.732,8.148
966,0.000,3.329,28.180,2.906,0.581,7.914,-6.546,-8.624,6.713,-2.895,4.148,8.929,-14.847,2.861,-2.861,0.000,0.000,6,0.001,0.114,826,1021,1231,911,1.190,8.057
967,0.000,3.351,28.224,2.895,0.454,7.850,-7.706,-8.602,6.691,-2.873,4.184,8.841,-13.962,2.849,-2.849,0.000,0.000,6,0.001,0.117,826,1021,1231,911,1.556,8.057
968,0.000,3.373,28.268,2.873,0.478,7.897,-8.652,-8.580,6.669,-2.851,4.253,8.764,-12.772,2.840,-2.840,0.000,0.000,6,0.001,0.121,827,1021,1232,911,1.373,8.057
969,0.000,3.395,28.312,2.873,0.664,7.996,-9.140,-8.558,6.647,-2.840,4.196,8.750,-11.582,2.837,-2.837,0.000,0.000,6,0.001,0.124,827,1022,1231,911,0.916,7.965
970,0.000,3.417,28.356,2.851,0.827,7.998,-9.781,-8.537,6.647,-2.840,4.126,8.707,-10.208,2.839,-2.839,0.000,0.000,6,0.001,0.126,827,1021,1230,911,0.549,7.874
971,0.000,3.439,28.400,2.818,0.901,7.869,-10.636,-8.515,6.625,-2.840,4.083,8.570,-8.682,2.843,-2.843,0.000,0.000,6,0.001,0.125,827,1022,1231,910,0.366,7.782
972,0.000,3.483,28.444,2.818,0.971,8.015,-11.429,-8.493,6.625,-2.840,3.976,8.546,-7.187,2.845,-2.845,0.000,0.000,6,0.001,0.124,828,1021,1232,911,0.458,7.874
973,0.000,3.505,28.488,2.829,0.676,8.031,-12.284,-8.471,6.625,-2.829,3.779,8.644,-5.905,2.847,-2.847,0.000,0.000,6,0.001,0.124,828,1021,1231,911,0.641,7.965
974,0.000,3.527,28.532,2.851,0.585,8.036,-13.016,-8.449,6.625,-2.840,3.621,8.649,-4.776,2.847,-2.847,0.000,0.000,6,0.001,0.123,828,1022,1229,911,0.824,7.965
975,0.000,3.549,28.576,2.829,0.715,8.139,-13.718,-8.427,6.625,-2.829,3.329,8.632,-3.647,2.846,-2.846,0.000,0.000,6,0.001,0.121,830,1021,1229,912,0.824,7.782
976,0.000,3.571,28.620,2.851,0.928,8.225,-14.298,-8.427,6.625,-2.840,2.960,8.728,-3.189,2.842,-2.842,0.000,0.000,6,0.002,0.121,829,1021,1230,910,0.916,7.965
977,0.000,3.615,28.664,2.840,1.234,8.328,-14.817,-8.427,6.625,-2.818,2.582,8.834,-3.220,2.840,-2.840,0.000,0.000,6,0.002,0.120,829,1021,1230,910,0.641,7.965
978,0.000,3.659,28.708,2.829,1.522,8.522,-15.122,-8.427,6.625,-2.829,2.400,8.872,-3.220,2.835,-2.835,0.000,0.000,6,0.002,0.118,829,1021,1230,911,0.549,7.965
979,0.000,3.702,28.730,2.851,1.737,8.726,-15.091,-8.427,6.625,-2.818,2.534,8.903,-3.250,2.829,-2.829,0.000,0.000,6,0.002,0.116,830,1022,1229,911,0.641,8.057
980,0.000,3.746,28.774,2.829,1.818,8.853,-15.000,-8.449,6.625,-2.829,2.527,8.910,-3.220,2.820,-2.820,0.000,0.000,6,0.003,0.115,830,1022,1229,909,0.916,8.148
981,0.000,3.790,28.840,2.807,1.816,8.857,-15.061,-8.449,6.625,-2.829,2.510,8.802,-3.250,2.811,-2.811,0.000,0.000,6,0.003,0.115,830,1021,1228,911,1.190,8.240
982,0.000,3.856,28.883,2.818,1.775,8.913,-15.305,-8.449,6.625,-2.818,2.585,8.695,-3.403,2.802,-2.802,0.000,0.000,6,0.003,0.115,831,1022,1228,911,1.465,8.515
983,0.000,3.900,28.927,2.818,1.701,9.114,-15.610,-8.449,6.625,-2.807,2.664,8.664,-3.616,2.794,-2.794,0.000,0.000,6,0.004,0.113,831,1021,1229,911,1.648,8.698
984,0.000,3.944,28.949,2.807,1.581,9.133,-16.129,-8.449,6.625,-2.807,2.716,8.661,-3.799,2.784,-2.784,0.000,0.000,6,0.005,0.112,832,1021,1228,909,1.740,8.789
985,0.000,3.988,28.993,2.818,1.419,8.982,-16.709,-8.449,6.625,-2.785,2.774,8.632,-3.983,2.773,-2.773,0.000,0.000,6,0.006,0.111,831,1022,1227,910,1.740,8.789
