loopCnt,assist_level,thighDeg_RH,incPosDeg_RH,MotorActCurrent_RH,accX_Calib_RH,accY_Calib_RH,gyroZ_Calib_RH,thighDeg_LH,incPosDeg_LH,MotorActCurrent_LH,accX_Calib_LH,accY_Calib_LH,gyroZ_Calib_LH,u_RH,u_LH,Pvector_ref_RH,Pvector_ref_LH,extension_control_mode,emg_R1,emg_L1,fsr_R1,fsr_R2,fsr_L1,fsr_L2,free_var1,free_var2
280,0.000,-4.977,19.633,0.000,2.556,9.509,0.748,-3.241,15.392,0.000,2.553,9.628,0.473,0.000,0.000,0.000,0.000,0,-0.001,0.009,785,1024,1260,944,2.564,9.430
281,0.000,-4.977,19.633,0.005,2.553,9.478,0.809,-3.241,15.392,-0.005,2.518,9.619,0.351,0.000,0.000,0.000,0.000,0,-0.001,0.009,785,1025,1260,944,2.564,9.522
282,0.000,-4.977,19.633,0.000,2.580,9.533,0.809,-3.241,15.392,0.005,2.532,9.624,0.443,0.000,0.000,0.000,0.000,0,-0.001,0.009,786,1025,1260,945,2.564,9.522
283,0.000,-4.977,19.633,-0.005,2.623,9.547,0.687,-3.241,15.392,0.000,2.553,9.636,0.443,0.000,0.000,0.000,0.000,0,-0.002,0.009,785,1024,1259,944,2.472,9.430
284,0.000,-4.955,19.633,-0.005,2.632,9.514,0.595,-3.219,15.392,0.000,2.577,9.652,0.595,0.000,0.000,0.000,0.000,0,-0.002,0.009,785,1025,1259,944,2.472,9.430
285,0.000,-4.955,19.633,-0.016,2.609,9.480,0.687,-3.219,15.392,0.005,2.568,9.612,0.595,0.000,0.000,0.000,0.000,0,-0.002,0.010,785,1024,1261,945,2.564,9.522
286,0.000,-4.955,19.633,0.000,2.582,9.490,0.717,-3.219,15.392,-0.005,2.570,9.607,0.656,0.000,0.000,0.000,0.000,0,-0.002,0.010,785,1025,1259,945,2.564,9.522
287,0.000,-4.933,19.633,0.000,2.611,9.504,0.748,-3.197,15.392,0.000,2.618,9.628,0.565,0.000,0.000,0.000,0.000,0,-0.001,0.010,784,1025,1259,944,2.564,9.430
288,0.000,-4.933,19.633,0.005,2.618,9.458,0.748,-3.197,15.392,0.005,2.587,9.612,0.504,0.000,0.000,0.000,0.000,0,-0.002,0.009,785,1024,1260,944,2.564,9.430
289,0.000,-4.933,19.633,0.000,2.565,9.461,0.748,-3.197,15.392,-0.005,2.551,9.624,0.565,0.000,0.000,0.000,0.000,0,-0.002,0.009,786,1026,1260,944,2.564,9.430
290,0.000,-4.933,19.633,0.000,2.558,9.506,0.748,-3.175,15.392,-0.005,2.501,9.626,0.504,0.000,0.000,0.000,0.000,0,-0.002,0.009,784,1025,1259,945,2.564,9.430
291,0.000,-4.911,19.633,0.005,2.570,9.490,0.778,-3.175,15.392,0.000,2.551,9.667,0.565,0.000,0.000,0.000,0.000,0,-0.001,0.009,785,1025,1259,944,2.564,9.430
292,0.000,-4.911,19.633,-0.016,2.618,9.461,0.748,-3.175,15.392,0.005,2.640,9.705,0.595,0.000,0.000,0.000,0.000,0,-0.002,0.009,785,1025,1260,945,2.564,9.430
293,0.000,-4.911,19.633,0.005,2.609,9.434,0.656,-3.175,15.392,0.005,2.611,9.672,0.748,0.000,0.000,0.000,0.000,0,-0.002,0.010,785,1026,1260,944,2.472,9.430
294,0.000,-4.889,19.633,0.005,2.618,9.463,0.748,-3.153,15.392,0.016,2.592,9.638,0.900,0.000,0.000,0.000,0.000,0,-0.002,0.010,783,1026,1259,944,2.564,9.430
295,0.000,-4.889,19.633,0.000,2.661,9.468,0.961,-3.153,15.392,0.005,2.515,9.633,0.687,0.000,0.000,0.000,0.000,0,-0.002,0.011,785,1024,1259,945,2.564,9.430
296,0.000,-4.867,19.633,0.000,2.611,9.423,0.839,-3.153,15.392,0.005,2.515,9.664,0.534,0.000,0.000,0.000,0.000,0,-0.001,0.011,785,1026,1260,944,2.564,9.430
297,0.000,-4.867,19.633,0.000,2.594,9.449,0.595,-3.153,15.392,-0.005,2.609,9.695,0.595,0.000,0.000,0.000,0.000,0,-0.002,0.011,785,1026,1260,944,2.564,9.430
298,0.000,-4.867,19.633,-0.005,2.647,9.427,0.626,-3.131,15.392,0.005,2.613,9.681,0.687,0.000,0.000,0.000,0.000,0,-0.002,0.011,784,1026,1260,945,2.655,9.430
299,0.000,-4.845,19.633,0.005,2.625,9.432,0.595,-3.131,15.392,-0.005,2.561,9.698,0.809,0.000,0.000,0.000,0.000,0,-0.002,0.011,785,1026,1259,944,2.564,9.339
300,0.000,-4.845,19.633,-0.005,2.597,9.468,0.717,-3.131,15.392,0.000,2.518,9.695,0.717,0.000,0.000,0.000,0.000,0,-0.002,0.011,785,1026,1260,944,2.564,9.430
301,0.000,-4.823,19.633,0.000,2.644,9.454,0.656,-3.131,15.392,0.000,2.587,9.667,0.595,0.000,0.000,0.000,0.000,0,-0.002,0.011,785,1026,1259,944,2.564,9.339
302,0.000,-4.823,19.633,-0.005,2.697,9.470,0.809,-3.131,15.392,0.000,2.616,9.681,0.534,0.000,0.000,0.000,0.000,0,-0.002,0.011,785,1026,1260,945,2.564,9.430
303,0.000,-4.801,19.633,0.005,2.664,9.458,0.870,-3.109,15.392,0.000,2.585,9.712,0.687,0.000,0.000,0.000,0.000,0,-0.002,0.011,785,1026,1260,945,2.564,9.430
304,0.000,-4.801,19.633,-0.005,2.620,9.411,0.839,-3.109,15.392,-0.005,2.601,9.722,0.839,0.000,0.000,0.000,0.000,0,-0.002,0.011,785,1026,1260,943,2.564,9.430
305,0.000,-4.779,19.633,0.005,2.666,9.413,0.931,-3.109,15.392,-0.005,2.582,9.722,0.870,0.000,0.000,0.000,0.000,0,-0.002,0.011,785,1029,1259,943,2.655,9.430
306,0.000,-4.779,19.633,0.005,2.692,9.430,0.900,-3.109,15.392,0.000,2.575,9.777,0.565,0.000,0.000,0.000,0.000,0,-0.002,0.012,786,1027,1259,945,2.655,9.430
307,0.000,-4.757,19.633,-0.005,2.649,9.408,0.748,-3.109,15.392,0.000,2.565,9.786,0.595,0.000,0.000,0.000,0.000,0,-0.002,0.011,785,1026,1259,944,2.564,9.339
308,0.000,-4.757,19.633,0.000,2.616,9.384,0.870,-3.109,15.392,-0.005,2.565,9.753,0.778,0.000,0.000,0.000,0.000,0,-0.002,0.011,785,1027,1260,944,2.655,9.339
309,0.000,-4.735,19.633,0.005,2.649,9.391,0.870,-3.109,15.392,0.000,2.585,9.743,0.839,0.000,0.000,0.000,0.000,0,-0.002,0.011,785,1027,1259,945,2.655,9.430
310,0.000,-4.735,19.633,0.000,2.618,9.396,0.809,-3.109,15.392,0.000,2.570,9.736,0.961,0.000,0.000,0.000,0.000,0,-0.003,0.011,785,1027,1260,944,2.564,9.339
311,0.000,-4.713,19.633,-0.005,2.625,9.399,0.931,-3.087,15.392,0.000,2.587,9.748,0.870,0.000,0.000,0.000,0.000,0,-0.002,0.011,784,1027,1259,944,2.564,9.339
312,0.000,-4.713,19.633,0.005,2.644,9.442,0.870,-3.087,15.392,-0.005,2.582,9.753,0.839,0.000,0.000,0.000,0.000,0,-0.001,0.011,785,1028,1259,944,2.564,9.339
313,0.000,-4.713,19.633,-0.005,2.623,9.430,0.870,-3.087,15.392,0.000,2.575,9.751,0.900,0.000,0.000,0.000,0.000,0,-0.002,0.010,786,1027,1259,944,2.564,9.339
314,0.000,-4.691,19.633,0.000,2.685,9.396,0.931,-3.087,15.392,0.000,2.599,9.777,0.839,0.000,0.000,0.000,0.000,0,-0.003,0.011,785,1027,1260,945,2.564,9.339
315,0.000,-4.691,19.633,0.005,2.647,9.377,0.839,-3.087,15.392,0.000,2.630,9.746,0.870,0.000,0.000,0.000,0.000,0,-0.002,0.010,785,1027,1259,944,2.564,9.430
316,0.000,-4.669,19.633,0.005,2.685,9.411,0.931,-3.087,15.392,0.000,2.594,9.705,0.931,0.000,0.000,0.000,0.000,0,-0.002,0.011,785,1027,1260,944,2.564,9.430
317,0.000,-4.669,19.633,0.000,2.666,9.408,1.022,-3.087,15.392,0.005,2.522,9.770,0.870,0.000,0.000,0.000,0.000,0,-0.003,0.010,785,1028,1259,944,2.655,9.339
318,0.000,-4.647,19.633,0.000,2.642,9.399,0.931,-3.087,15.392,0.000,2.570,9.782,0.870,0.000,0.000,0.000,0.000,0,-0.002,0.011,785,1027,1259,945,2.564,9.339
319,0.000,-4.647,19.633,0.000,2.625,9.413,1.053,-3.087,15.392,0.005,2.582,9.755,0.931,0.000,0.000,0.000,0.000,0,-0.003,0.011,785,1027,1259,945,2.655,9.339
320,0.000,-4.647,19.633,-0.005,2.673,9.413,1.083,-3.087,15.392,0.000,2.544,9.741,0.961,0.000,0.000,0.000,0.000,0,-0.002,0.010,785,1028,1260,944,2.655,9.339
321,0.000,-4.625,19.633,0.000,2.659,9.415,1.144,-3.087,15.392,0.016,2.551,9.731,0.900,0.000,0.000,0.000,0.000,0,-0.002,0.010,785,1027,1260,944,2.564,9.339
322,0.000,-4.625,19.633,-0.016,2.594,9.458,1.297,-3.087,15.392,0.000,2.570,9.724,1.083,0.000,0.000,0.000,0.000,0,-0.002,0.010,785,1027,1259,944,2.564,9.339
323,0.000,-4.625,19.633,0.005,2.620,9.458,1.236,-3.065,15.392,0.000,2.599,9.705,1.236,0.000,0.000,0.000,0.000,0,-0.002,0.010,785,1028,1259,944,2.655,9.339
324,0.000,-4.603,19.633,0.000,2.678,9.418,1.114,-3.065,15.392,-0.005,2.580,9.715,1.175,0.000,0.000,0.000,0.000,0,-0.002,0.010,785,1028,1260,945,2.655,9.339
325,0.000,-4.603,19.633,0.005,2.704,9.411,1.144,-3.065,15.392,-0.005,2.522,9.719,1.114,0.000,0.000,0.000,0.000,0,-0.002,0.010,785,1028,1260,944,2.564,9.430
326,0.000,-4.581,19.633,-0.005,2.671,9.437,1.144,-3.065,15.392,0.005,2.532,9.693,1.236,0.000,0.000,0.000,0.000,0,-0.002,0.010,784,1028,1259,944,2.564,9.430
327,0.000,-4.581,19.633,0.000,2.630,9.466,1.266,-3.065,15.392,-0.016,2.568,9.674,1.358,0.000,0.000,0.000,0.000,0,-0.002,0.010,785,1026,1260,944,2.655,9.339
328,0.000,-4.581,19.633,0.000,2.709,9.473,1.480,-3.065,15.392,0.005,2.537,9.683,1.358,0.000,0.000,0.000,0.000,0,-0.002,0.009,786,1028,1260,943,2.655,9.339
329,0.000,-4.559,19.633,-0.005,2.735,9.456,1.541,-3.065,15.392,0.000,2.501,9.683,1.266,0.000,0.000,0.000,0.000,0,-0.002,0.010,785,1029,1259,945,2.655,9.430
330,0.000,-4.559,19.633,-0.005,2.676,9.461,1.450,-3.087,15.392,-0.005,2.522,9.662,1.144,0.000,0.000,0.000,0.000,0,-0.002,0.010,786,1028,1259,944,2.564,9.430
331,0.000,-4.537,19.633,0.005,2.659,9.490,1.389,-3.087,15.392,-0.005,2.534,9.657,1.266,0.000,0.000,0.000,0.000,0,-0.002,0.009,785,1028,1259,944,2.655,9.430
332,0.000,-4.537,19.633,0.005,2.656,9.463,1.694,-3.087,15.392,0.005,2.539,9.676,1.480,0.000,0.000,0.000,0.000,0,-0.002,0.009,785,1029,1260,943,2.655,9.430
333,0.000,-4.537,19.633,0.005,2.678,9.451,1.633,-3.087,15.392,-0.005,2.527,9.655,1.633,0.000,0.000,0.000,0.000,0,-0.002,0.009,784,1028,1259,944,2.655,9.430
334,0.000,-4.537,19.633,-0.005,2.659,9.499,1.694,-3.087,15.392,-0.005,2.508,9.576,1.694,0.000,0.000,0.000,0.000,0,-0.002,0.009,785,1025,1259,945,2.655,9.430
335,0.000,-4.515,19.633,-0.016,2.649,9.506,1.724,-3.087,15.392,-0.005,2.539,9.597,1.541,0.000,0.000,0.000,0.000,0,-0.002,0.009,785,1028,1259,944,2.655,9.430
336,0.000,-4.515,19.633,0.016,2.661,9.485,1.663,-3.087,15.392,0.000,2.518,9.652,1.358,0.000,0.000,0.000,0.000,0,-0.002,0.010,785,1028,1259,944,2.655,9.430
337,0.000,-4.515,19.633,-0.005,2.661,9.478,1.724,-3.087,15.392,0.000,2.479,9.638,1.419,0.000,0.000,0.000,0.000,0,-0.001,0.010,785,1029,1259,944,2.655,9.430
338,0.000,-4.515,19.633,0.000,2.625,9.480,1.785,-3.087,15.392,0.000,2.486,9.624,1.511,0.000,0.000,0.000,0.000,0,-0.002,0.010,785,1029,1259,944,2.564,9.430
339,0.000,-4.515,19.633,-0.005,2.676,9.504,1.694,-3.109,15.392,0.016,2.472,9.626,1.572,0.000,0.000,0.000,0.000,0,-0.002,0.010,785,1028,1259,943,2.655,9.430
340,0.000,-4.515,19.633,-0.005,2.707,9.514,1.785,-3.109,15.392,-0.005,2.489,9.624,1.511,0.000,0.000,0.000,0.000,0,-0.001,0.011,785,1029,1259,944,2.655,9.430
341,0.000,-4.493,19.633,-0.005,2.673,9.502,1.846,-3.109,15.392,0.000,2.527,9.595,1.389,0.000,0.000,0.000,0.000,0,-0.002,0.010,785,1029,1259,946,2.564,9.430
342,0.000,-4.493,19.633,0.000,2.704,9.502,1.816,-3.109,15.392,0.005,2.486,9.607,1.572,0.000,0.000,0.000,0.000,0,-0.002,0.010,785,1029,1259,944,2.655,9.430
343,0.000,-4.493,19.633,-0.016,2.707,9.504,1.816,-3.109,15.392,-0.005,2.453,9.600,1.511,0.000,0.000,0.000,0.000,0,-0.001,0.010,786,1029,1259,943,2.655,9.430
344,0.000,-4.472,19.633,-0.005,2.661,9.514,1.816,-3.109,15.392,0.005,2.462,9.540,1.602,0.000,0.000,0.000,0.000,0,-0.001,0.010,785,1030,1259,944,2.655,9.430
345,0.000,-4.472,19.633,-0.005,2.666,9.530,1.877,-3.131,15.392,0.000,2.494,9.554,1.602,0.000,0.000,0.000,0.000,0,-0.002,0.010,785,1029,1259,945,2.655,9.430
346,0.000,-4.472,19.633,0.005,2.688,9.545,1.938,-3.131,15.392,0.000,2.479,9.602,1.511,0.000,0.000,0.000,0.000,0,-0.002,0.010,785,1028,1259,945,2.655,9.430
347,0.000,-4.472,19.633,0.005,2.714,9.564,2.060,-3.131,15.392,0.000,2.460,9.569,1.450,0.000,0.000,0.000,0.000,0,-0.002,0.009,785,1029,1259,944,2.655,9.430
348,0.000,-4.450,19.633,0.000,2.738,9.557,1.999,-3.131,15.392,-0.005,2.448,9.480,1.358,0.000,0.000,0.000,0.000,0,-0.002,0.009,786,1029,1259,944,2.655,9.522
349,0.000,-4.450,19.633,0.000,2.704,9.573,1.999,-3.131,15.392,0.000,2.429,9.499,1.266,0.000,0.000,0.000,0.000,0,-0.002,0.009,785,1029,1259,944,2.655,9.522
350,0.000,-4.450,19.633,-0.005,2.685,9.578,2.182,-3.153,15.392,-0.005,2.448,9.545,1.266,0.000,0.000,0.000,0.000,0,-0.001,0.010,787,1030,1259,944,2.655,9.522
351,0.000,-4.450,19.633,0.005,2.625,9.571,2.182,-3.153,15.392,0.005,2.477,9.523,1.328,0.000,0.000,0.000,0.000,0,-0.001,0.010,785,1031,1259,944,2.655,9.522
352,0.000,-4.450,19.633,0.005,2.635,9.549,2.152,-3.153,15.392,0.000,2.419,9.530,1.419,0.000,0.000,0.000,0.000,0,-0.001,0.010,785,1030,1259,944,2.655,9.522
353,0.000,-4.450,19.633,0.005,2.695,9.554,2.029,-3.153,15.392,0.005,2.443,9.475,1.450,0.000,0.000,0.000,0.000,0,-0.002,0.011,785,1029,1260,944,2.655,9.522
354,0.000,-4.450,19.633,0.005,2.750,9.528,2.121,-3.175,15.392,0.000,2.403,9.504,1.328,0.000,0.000,0.000,0.000,0,-0.002,0.011,785,1029,1259,944,2.564,9.522
355,0.000,-4.428,19.633,0.000,2.700,9.499,2.090,-3.175,15.392,-0.005,2.422,9.518,1.328,0.000,0.000,0.000,0.000,0,-0.002,0.011,786,1029,1259,945,2.564,9.522
356,0.000,-4.428,19.633,-0.005,2.644,9.559,2.090,-3.175,15.392,0.000,2.422,9.509,1.266,0.000,0.000,0.000,0.000,0,-0.001,0.011,785,1031,1259,944,2.655,9.522
357,0.000,-4.428,19.633,-0.005,2.680,9.607,1.999,-3.175,15.392,0.005,2.482,9.504,1.236,0.000,0.000,0.000,0.000,0,-0.001,0.011,785,1030,1259,944,2.747,9.522
358,0.000,-4.428,19.633,0.000,2.690,9.566,1.938,-3.175,15.392,0.000,2.496,9.473,1.328,0.000,0.000,0.000,0.000,0,-0.001,0.010,785,1030,1260,944,2.655,9.430
359,0.000,-4.428,19.633,0.000,2.673,9.549,1.968,-3.175,15.392,0.000,2.472,9.458,1.236,0.000,0.000,0.000,0.000,0,-0.001,0.010,786,1030,1259,944,2.564,9.522
360,0.000,-4.428,19.633,0.000,2.661,9.521,2.029,-3.175,15.392,0.016,2.443,9.473,1.266,0.000,0.000,0.000,0.000,0,-0.001,0.010,787,1030,1260,944,2.655,9.522
361,0.000,-4.428,19.633,-0.005,2.649,9.542,2.029,-3.175,15.392,0.005,2.448,9.461,1.266,0.000,0.000,0.000,0.000,0,-0.002,0.010,786,1030,1260,944,2.655,9.522
362,0.000,-4.428,19.633,0.000,2.692,9.616,1.907,-3.197,15.392,0.005,2.470,9.490,1.236,0.000,0.000,0.000,0.000,0,-0.002,0.010,784,1030,1259,944,2.655,9.522
363,0.000,-4.428,19.633,0.000,2.661,9.569,1.907,-3.197,15.392,0.005,2.446,9.530,1.175,0.000,0.000,0.000,0.000,0,-0.002,0.011,785,1031,1260,944,2.655,9.522
364,0.000,-4.428,19.633,0.005,2.611,9.530,1.816,-3.197,15.392,0.000,2.455,9.516,1.022,0.000,0.000,0.000,0.000,0,-0.001,0.012,785,1030,1260,944,2.564,9.522
365,0.000,-4.428,19.633,0.000,2.668,9.564,1.816,-3.197,15.392,0.005,2.436,9.494,0.961,0.000,0.000,0.000,0.000,0,-0.001,0.012,784,1030,1259,944,2.655,9.613
366,0.000,-4.428,19.633,0.000,2.678,9.554,1.907,-3.197,15.392,0.000,2.395,9.490,1.114,0.000,0.000,0.000,0.000,0,-0.002,0.012,786,1029,1259,944,2.655,9.522
367,0.000,-4.428,19.633,0.005,2.616,9.525,1.694,-3.219,15.392,0.000,2.417,9.466,1.053,0.000,0.000,0.000,0.000,0,-0.002,0.011,785,1030,1259,944,2.564,9.522
368,0.000,-4.428,19.633,0.005,2.630,9.559,1.755,-3.219,15.392,-0.005,2.448,9.432,0.961,0.000,0.000,0.000,0.000,0,-0.002,0.012,785,1030,1259,944,2.655,9.522
369,0.000,-4.428,19.633,0.000,2.690,9.552,1.877,-3.219,15.392,0.000,2.453,9.430,0.961,0.000,0.000,0.000,0.000,0,-0.002,0.011,786,1031,1259,944,2.655,9.522
370,0.000,-4.428,19.633,0.005,2.654,9.499,1.907,-3.219,15.392,0.000,2.491,9.442,1.022,0.000,0.000,0.000,0.000,0,-0.002,0.011,786,1030,1260,944,2.564,9.522
371,0.000,-4.428,19.633,0.000,2.625,9.504,1.694,-3.197,15.392,0.000,2.472,9.451,0.900,0.000,0.000,0.000,0.000,0,-0.002,0.011,786,1031,1260,943,2.564,9.522
372,0.000,-4.428,19.633,0.000,2.649,9.542,1.663,-3.197,15.392,-0.016,2.451,9.461,0.778,0.000,0.000,0.000,0.000,0,-0.002,0.011,782,1030,1259,944,2.655,9.522
373,0.000,-4.428,19.633,0.005,2.649,9.559,1.633,-3.197,15.392,0.000,2.448,9.490,0.748,0.000,0.000,0.000,0.000,0,-0.002,0.010,786,1030,1259,945,2.655,9.430
374,0.000,-4.428,19.633,0.000,2.616,9.559,1.633,-3.219,15.392,-0.005,2.446,9.492,0.778,0.000,0.000,0.000,0.000,0,-0.001,0.010,786,1031,1260,944,2.564,9.430
375,0.000,-4.428,19.633,0.005,2.589,9.545,1.572,-3.219,15.392,-0.005,2.429,9.468,0.656,0.000,0.000,0.000,0.000,0,-0.002,0.010,786,1031,1259,944,2.564,9.522
376,0.000,-4.450,19.633,-0.005,2.597,9.525,1.480,-3.219,15.392,-0.005,2.417,9.461,0.687,0.000,0.000,0.000,0.000,0,-0.002,0.011,786,1031,1259,944,2.564,9.522
377,0.000,-4.450,19.633,0.016,2.637,9.573,1.419,-3.219,15.392,0.005,2.486,9.463,0.717,0.000,0.000,0.000,0.000,0,-0.002,0.013,786,1031,1259,944,2.564,9.522
378,0.000,-4.450,19.633,0.005,2.616,9.573,1.480,-3.219,15.392,0.005,2.496,9.480,0.656,0.000,0.000,0.000,0.000,0,-0.002,0.013,785,1030,1259,943,2.564,9.522
379,0.000,-4.450,19.633,0.000,2.582,9.540,1.389,-3.197,15.392,0.005,2.520,9.444,0.534,0.000,0.000,0.000,0.000,0,-0.002,0.014,786,1031,1259,944,2.564,9.522
380,0.000,-4.450,19.633,0.000,2.632,9.552,1.266,-3.197,15.392,0.005,2.525,9.423,0.443,0.000,0.000,0.000,0.000,0,-0.002,0.014,786,1031,1259,946,2.564,9.522
381,0.000,-4.450,19.633,0.000,2.585,9.557,1.205,-3.197,15.392,0.000,2.484,9.461,0.412,0.000,0.000,0.000,0.000,0,-0.002,0.013,786,1031,1259,943,2.564,9.522
382,0.000,-4.472,19.633,0.000,2.592,9.569,1.114,-3.197,15.392,0.000,2.484,9.475,0.381,0.000,0.000,0.000,0.000,0,-0.002,0.013,786,1031,1259,943,2.564,9.522
383,0.000,-4.472,19.633,-0.005,2.661,9.554,1.114,-3.197,15.392,0.000,2.496,9.485,0.351,0.000,0.000,0.000,0.000,0,-0.002,0.012,786,1032,1259,944,2.564,9.522
384,0.000,-4.472,19.633,0.000,2.616,9.557,1.144,-3.175,15.392,-0.005,2.462,9.482,0.290,0.000,0.000,0.000,0.000,0,-0.002,0.012,786,1032,1259,945,2.564,9.522
385,0.000,-4.472,19.633,0.000,2.613,9.554,1.175,-3.197,15.392,0.000,2.422,9.480,0.259,0.000,0.000,0.000,0.000,0,-0.002,0.011,786,1031,1259,944,2.564,9.522
386,0.000,-4.472,19.633,0.016,2.628,9.557,0.992,-3.197,15.392,-0.005,2.474,9.478,0.198,0.000,0.000,0.000,0.000,0,-0.002,0.012,786,1032,1259,944,2.655,9.522
387,0.000,-4.472,19.633,-0.016,2.625,9.566,1.022,-3.197,15.392,-0.016,2.465,9.461,0.107,0.000,0.000,0.000,0.000,0,-0.002,0.012,786,1031,1259,944,2.564,9.522
388,0.000,-4.472,19.633,0.005,2.652,9.588,0.992,-3.197,15.392,0.005,2.479,9.454,0.000,0.000,0.000,0.000,0.000,0,-0.002,0.012,786,1032,1260,944,2.564,9.522
389,0.000,-4.472,19.633,0.005,2.623,9.578,0.931,-3.175,15.392,-0.005,2.518,9.478,-0.015,0.000,0.000,0.000,0.000,0,-0.002,0.012,787,1032,1259,944,2.564,9.522
390,0.000,-4.472,19.633,0.000,2.628,9.593,0.931,-3.175,15.392,-0.005,2.451,9.478,-0.015,0.000,0.000,0.000,0.000,0,-0.001,0.012,786,1030,1259,944,2.564,9.522
391,0.000,-4.472,19.633,-0.005,2.632,9.609,0.900,-3.175,15.392,-0.005,2.501,9.432,-0.015,0.000,0.000,0.000,0.000,0,-0.002,0.012,786,1032,1259,944,2.564,9.522
392,0.000,-4.472,19.633,0.005,2.623,9.600,0.961,-3.175,15.392,0.000,2.549,9.406,0.000,0.000,0.000,0.000,0.000,0,-0.002,0.012,786,1032,1260,944,2.564,9.522
393,0.000,-4.493,19.633,0.000,2.604,9.595,0.809,-3.153,15.392,0.005,2.486,9.406,0.000,0.000,0.000,0.000,0.000,0,-0.002,0.012,786,1032,1260,944,2.564,9.522
394,0.000,-4.493,19.633,-0.005,2.620,9.593,0.748,-3.153,15.392,0.000,2.513,9.451,-0.015,0.000,0.000,0.000,0.000,0,-0.002,0.012,787,1032,1259,944,2.564,9.522
395,0.000,-4.493,19.633,0.000,2.678,9.583,0.870,-3.153,15.392,-0.016,2.544,9.456,-0.107,0.000,0.000,0.000,0.000,0,-0.002,0.012,786,1033,1259,944,2.564,9.522
396,0.000,-4.493,19.633,-0.005,2.695,9.621,0.809,-3.131,15.392,-0.005,2.546,9.442,-0.168,0.000,0.000,0.000,0.000,0,-0.002,0.012,786,1033,1259,944,2.564,9.522
397,0.000,-4.493,19.633,0.005,2.618,9.597,0.534,-3.131,15.392,0.000,2.551,9.427,-0.320,0.000,0.000,0.000,0.000,0,-0.002,0.012,786,1032,1259,944,2.564,9.522
398,0.000,-4.493,19.633,0.000,2.604,9.602,0.473,-3.109,15.392,0.000,2.551,9.432,-0.290,0.000,0.000,0.000,0.000,0,-0.002,0.013,786,1032,1260,944,2.655,9.522
399,0.000,-4.493,19.633,-0.005,2.656,9.595,0.595,-3.109,15.392,0.000,2.503,9.423,-0.290,0.000,0.000,0.000,0.000,0,-0.002,0.014,787,1032,1259,944,2.655,9.613
400,0.000,-4.493,19.633,0.000,2.628,9.514,0.565,-3.109,15.392,0.000,2.482,9.401,-0.290,0.000,0.000,0.000,0.000,0,-0.002,0.015,786,1032,1259,944,2.564,9.522
401,0.000,-4.493,19.633,0.000,2.577,9.557,0.381,-3.109,15.392,0.000,2.532,9.413,-0.320,0.000,0.000,0.000,0.000,0,-0.002,0.015,786,1032,1259,944,2.564,9.522
402,0.000,-4.493,19.633,0.005,2.563,9.619,0.259,-3.087,15.392,-0.005,2.582,9.432,-0.320,0.000,0.000,0.000,0.000,0,-0.002,0.016,786,1033,1259,944,2.655,9.522
403,0.000,-4.515,19.633,0.005,2.561,9.571,0.198,-3.065,15.414,-0.005,2.563,9.449,-0.381,0.000,0.000,0.000,0.000,0,-0.002,0.016,786,1033,1259,944,2.564,9.430
404,0.000,-4.515,19.633,0.000,2.611,9.576,0.198,-3.065,15.414,0.000,2.532,9.442,-0.504,0.000,0.000,0.000,0.000,0,-0.002,0.016,785,1033,1259,944,2.564,9.522
405,0.000,-4.515,19.633,0.005,2.616,9.607,0.229,-3.065,15.414,-0.005,2.570,9.425,-0.656,0.000,0.000,0.000,0.000,0,-0.001,0.015,786,1032,1259,944,2.564,9.613
406,0.000,-4.515,19.633,-0.005,2.599,9.583,0.137,-3.043,15.414,0.000,2.599,9.456,-0.656,0.000,0.000,0.000,0.000,0,-0.001,0.015,787,1033,1259,944,2.472,9.522
407,0.000,-4.515,19.633,0.000,2.599,9.549,0.046,-3.021,15.414,-0.005,2.635,9.492,-0.748,0.000,0.000,0.000,0.000,0,-0.002,0.015,787,1033,1258,944,2.564,9.522
408,0.000,-4.515,19.633,-0.005,2.549,9.540,0.000,-3.021,15.414,0.005,2.647,9.482,-0.656,0.000,0.000,0.000,0.000,0,-0.002,0.014,786,1033,1258,944,2.564,9.522
409,0.000,-4.537,19.633,0.000,2.553,9.590,-0.137,-2.999,15.414,-0.005,2.630,9.434,-0.595,0.000,0.000,0.000,0.000,0,-0.002,0.014,786,1033,1260,944,2.564,9.522
410,0.000,-4.537,19.633,0.005,2.594,9.597,-0.107,-2.977,15.414,0.005,2.649,9.466,-0.717,0.000,0.000,0.000,0.000,0,-0.002,0.014,786,1033,1261,943,2.564,9.522
411,0.000,-4.537,19.633,0.005,2.575,9.540,-0.107,-2.955,15.414,0.005,2.599,9.528,-0.717,0.000,0.000,0.000,0.000,0,-0.002,0.014,784,1033,1259,944,2.472,9.522
412,0.000,-4.537,19.633,0.005,2.597,9.564,-0.137,-2.955,15.414,-0.005,2.544,9.482,-0.839,0.000,0.000,0.000,0.000,0,-0.002,0.014,786,1035,1258,945,2.472,9.522
413,0.000,-4.537,19.633,0.005,2.632,9.581,-0.137,-2.955,15.414,0.000,2.585,9.492,-0.809,0.000,0.000,0.000,0.000,0,-0.002,0.013,786,1034,1259,944,2.564,9.522
414,0.000,-4.537,19.633,0.000,2.647,9.549,-0.168,-2.933,15.414,0.000,2.577,9.554,-0.778,0.000,0.000,0.000,0.000,0,-0.002,0.013,787,1033,1260,943,2.564,9.522
415,0.000,-4.537,19.633,0.005,2.609,9.542,-0.229,-2.933,15.414,-0.005,2.573,9.537,-0.839,0.000,0.000,0.000,0.000,0,-0.002,0.012,787,1033,1259,944,2.564,9.522
416,0.000,-4.537,19.633,0.000,2.549,9.528,-0.381,-2.911,15.414,0.000,2.644,9.514,-0.748,0.000,0.000,0.000,0.000,0,-0.002,0.013,787,1034,1259,944,2.564,9.522
417,0.000,-4.537,19.633,-0.005,2.618,9.528,-0.565,-2.911,15.414,0.000,2.635,9.554,-0.809,0.000,0.000,0.000,0.000,0,-0.002,0.012,787,1033,1260,942,2.564,9.522
418,0.000,-4.537,19.633,0.005,2.609,9.528,-0.473,-2.889,15.414,-0.005,2.589,9.607,-0.931,0.000,0.000,0.000,0.000,0,-0.002,0.013,788,1034,1259,943,2.564,9.522
419,0.000,-4.537,19.633,-0.005,2.606,9.540,-0.351,-2.889,15.414,0.000,2.620,9.588,-0.900,0.000,0.000,0.000,0.000,0,-0.002,0.013,787,1034,1259,944,2.472,9.522
420,0.000,-4.537,19.633,0.016,2.563,9.585,-0.443,-2.867,15.414,-0.005,2.647,9.566,-0.961,0.000,0.000,0.000,0.000,0,-0.002,0.013,787,1034,1259,944,2.564,9.522
421,0.000,-4.559,19.633,0.000,2.580,9.561,-0.656,-2.867,15.414,-0.016,2.601,9.593,-0.992,0.000,0.000,0.000,0.000,0,-0.002,0.014,787,1034,1259,943,2.564,9.522
422,0.000,-4.559,19.633,0.005,2.558,9.466,-0.870,-2.846,15.414,0.000,2.620,9.609,-0.931,0.000,0.000,0.000,0.000,0,-0.002,0.013,788,1035,1259,943,2.564,9.522
423,0.000,-4.559,19.633,0.005,2.549,9.480,-0.748,-2.846,15.414,0.000,2.654,9.609,-0.961,0.000,0.000,0.000,0.000,0,-0.002,0.014,787,1034,1259,944,2.564,9.522
424,0.000,-4.559,19.633,-0.005,2.563,9.537,-0.839,-2.846,15.414,0.000,2.620,9.621,-1.144,0.000,0.000,0.000,0.000,0,-0.002,0.014,787,1034,1259,944,2.564,9.522
425,0.000,-4.559,19.633,0.005,2.616,9.523,-0.870,-2.824,15.414,0.000,2.620,9.638,-1.175,0.000,0.000,0.000,0.000,0,-0.001,0.014,787,1034,1259,943,2.472,9.430
426,0.000,-4.559,19.633,-0.005,2.649,9.506,-0.992,-2.824,15.414,-0.005,2.640,9.631,-1.236,0.000,0.000,0.000,0.000,0,-0.002,0.014,788,1035,1259,943,2.472,9.430
427,0.000,-4.559,19.633,-0.027,2.678,9.516,-0.809,-2.802,15.414,-0.016,2.616,9.648,-1.328,0.000,0.000,0.000,0.000,0,-0.002,0.014,787,1035,1259,944,2.564,9.522
428,0.000,-4.537,19.633,0.005,2.707,9.523,-0.809,-2.802,15.414,0.000,2.611,9.686,-1.205,0.000,0.000,0.000,0.000,0,-0.002,0.014,789,1034,1259,944,2.564,9.522
429,0.000,-4.537,19.633,0.005,2.690,9.547,-0.778,-2.802,15.414,-0.016,2.546,9.688,-1.328,0.000,0.000,0.000,0.000,0,-0.001,0.014,787,1037,1260,944,2.564,9.430
430,0.000,-4.515,19.633,0.000,2.666,9.530,-0.748,-2.802,15.414,-0.005,2.556,9.674,-1.450,0.000,0.000,0.000,0.000,0,-0.002,0.013,787,1035,1259,943,2.655,9.430
431,0.000,-4.515,19.633,-0.005,2.592,9.490,-0.687,-2.802,15.414,0.005,2.676,9.688,-1.633,0.000,0.000,0.000,0.000,0,-0.002,0.014,788,1035,1259,943,2.655,9.522
432,0.000,-4.515,19.633,0.005,2.637,9.487,-0.748,-2.780,15.414,0.000,2.671,9.676,-1.602,0.000,0.000,0.000,0.000,0,-0.002,0.013,788,1035,1259,944,2.655,9.522
433,0.000,-4.515,19.633,0.000,2.647,9.442,-0.687,-2.780,15.414,-0.005,2.688,9.683,-1.572,0.000,0.000,0.000,0.000,0,-0.002,0.014,788,1035,1259,944,2.655,9.522
434,0.000,-4.515,19.633,0.005,2.597,9.461,-0.595,-2.758,15.414,0.000,2.709,9.715,-1.633,0.000,0.000,0.000,0.000,0,-0.002,0.013,788,1036,1259,944,2.564,9.430
435,0.000,-4.515,19.633,-0.005,2.597,9.504,-0.595,-2.758,15.414,-0.005,2.735,9.717,-1.511,0.000,0.000,0.000,0.000,0,-0.002,0.013,788,1035,1259,943,2.564,9.430
436,0.000,-4.515,19.633,-0.005,2.582,9.482,-0.595,-2.736,15.414,-0.005,2.800,9.722,-1.633,0.000,0.000,0.000,0.000,0,-0.002,0.013,788,1035,1259,944,2.564,9.430
437,0.000,-4.515,19.633,-0.005,2.630,9.461,-0.626,-2.714,15.414,0.000,2.690,9.698,-1.846,0.000,0.000,0.000,0.000,0,-0.002,0.013,788,1035,1259,943,2.564,9.430
438,0.000,-4.515,19.633,0.000,2.625,9.427,-0.778,-2.692,15.414,0.000,2.738,9.686,-1.694,0.000,0.000,0.000,0.000,0,-0.002,0.013,789,1035,1259,944,2.564,9.430
439,0.000,-4.493,19.633,0.000,2.609,9.449,-0.778,-2.670,15.414,0.005,2.738,9.722,-1.724,0.000,0.000,0.000,0.000,0,-0.002,0.013,788,1035,1259,944,2.564,9.430
440,0.000,-4.493,19.633,0.000,2.652,9.468,-0.839,-2.670,15.414,0.005,2.697,9.760,-1.877,0.000,0.000,0.000,0.000,0,-0.002,0.013,789,1036,1259,944,2.564,9.430
441,0.000,-4.493,19.633,0.000,2.664,9.446,-0.687,-2.670,15.414,-0.005,2.692,9.753,-1.846,0.000,0.000,0.000,0.000,0,-0.002,0.014,787,1036,1260,944,2.564,9.339
442,0.000,-4.493,19.633,-0.005,2.635,9.449,-0.595,-2.648,15.436,0.000,2.731,9.767,-1.785,0.000,0.000,0.000,0.000,0,-0.002,0.014,788,1035,1259,943,2.564,9.430
443,0.000,-4.472,19.633,0.005,2.659,9.463,-0.626,-2.626,15.436,0.000,2.683,9.760,-1.785,0.000,0.000,0.000,0.000,0,-0.002,0.014,787,1035,1258,944,2.564,9.430
444,0.000,-4.472,19.633,0.000,2.711,9.442,-0.687,-2.626,15.436,0.005,2.719,9.727,-1.938,0.000,0.000,0.000,0.000,0,-0.002,0.014,788,1034,1260,944,2.655,9.430
445,0.000,-4.450,19.633,0.005,2.688,9.399,-0.626,-2.604,15.436,-0.005,2.726,9.705,-1.968,0.000,0.000,0.000,0.000,0,-0.002,0.013,789,1035,1259,944,2.564,9.430
446,0.000,-4.450,19.633,0.000,2.668,9.391,-0.687,-2.604,15.436,0.000,2.702,9.710,-1.877,0.000,0.000,0.000,0.000,0,-0.002,0.014,788,1035,1258,943,2.655,9.430
447,0.000,-4.450,19.633,0.005,2.723,9.434,-0.534,-2.582,15.436,-0.005,2.721,9.760,-1.938,0.000,0.000,0.000,0.000,0,-0.002,0.014,788,1035,1259,944,2.655,9.430
448,0.000,-4.428,19.633,0.000,2.755,9.454,-0.504,-2.582,15.436,0.005,2.707,9.734,-1.968,0.000,0.000,0.000,0.000,0,-0.002,0.014,788,1035,1260,944,2.655,9.339
449,0.000,-4.406,19.633,0.000,2.709,9.437,-0.595,-2.582,15.436,0.000,2.683,9.683,-1.877,0.000,0.000,0.000,0.000,0,-0.002,0.014,788,1035,1259,943,2.655,9.339
450,0.000,-4.406,19.633,0.000,2.661,9.413,-0.656,-2.560,15.436,0.000,2.721,9.707,-1.968,0.000,0.000,0.000,0.000,0,-0.002,0.014,793,1034,1259,944,2.655,9.430
451,0.000,-4.406,19.633,0.000,2.647,9.370,-0.656,-2.560,15.436,-0.005,2.757,9.731,-2.060,0.000,0.000,0.000,0.000,0,-0.002,0.014,788,1033,1258,944,2.747,9.430
452,0.000,-4.384,19.633,0.000,2.659,9.363,-0.534,-2.538,15.436,-0.005,2.757,9.722,-1.938,0.000,0.000,0.000,0.000,0,-0.002,0.013,788,1034,1260,943,2.655,9.430
453,0.000,-4.384,19.633,-0.005,2.697,9.396,-0.595,-2.516,15.436,0.005,2.747,9.705,-1.816,0.000,0.000,0.000,0.000,0,-0.002,0.014,788,1034,1259,944,2.655,9.339
454,0.000,-4.362,19.633,0.000,2.700,9.451,-0.626,-2.516,15.436,0.000,2.702,9.669,-1.816,0.000,0.000,0.000,0.000,0,-0.002,0.014,788,1034,1259,943,2.564,9.339
455,0.000,-4.362,19.633,0.000,2.683,9.384,-0.656,-2.494,15.436,0.000,2.709,9.633,-1.877,0.000,0.000,0.000,0.000,0,-0.002,0.016,788,1034,1259,943,2.655,9.339
456,0.000,-4.362,19.633,0.005,2.666,9.384,-0.626,-2.472,15.436,0.000,2.757,9.602,-1.785,0.000,0.000,0.000,0.000,0,-0.002,0.017,788,1033,1259,943,2.655,9.339
457,0.000,-4.340,19.633,-0.016,2.647,9.394,-0.656,-2.472,15.436,0.000,2.747,9.583,-1.663,0.000,0.000,0.000,0.000,0,-0.002,0.017,788,1033,1259,943,2.655,9.430
458,0.000,-4.340,19.633,0.005,2.630,9.430,-0.565,-2.450,15.436,0.005,2.735,9.597,-1.724,0.000,0.000,0.000,0.000,0,-0.002,0.016,788,1034,1258,945,2.655,9.339
459,0.000,-4.340,19.633,-0.005,2.704,9.478,-0.626,-2.428,15.436,0.000,2.740,9.638,-1.511,0.000,0.000,0.000,0.000,0,-0.002,0.016,788,1034,1259,943,2.655,9.339
460,0.000,-4.340,19.633,-0.005,2.779,9.430,-0.717,-2.428,15.436,0.000,2.726,9.662,-1.480,0.000,0.000,0.000,0.000,0,-0.002,0.016,788,1033,1259,942,2.564,9.339
461,0.000,-4.318,19.633,0.005,2.757,9.411,-0.778,-2.406,15.436,0.005,2.723,9.631,-1.602,0.000,0.000,0.000,0.000,0,-0.002,0.016,789,1034,1259,944,2.564,9.430
462,0.000,-4.296,19.633,0.000,2.714,9.475,-0.687,-2.406,15.436,0.000,2.688,9.566,-1.663,0.000,0.000,0.000,0.000,0,-0.002,0.016,787,1033,1259,944,2.655,9.430
463,0.000,-4.296,19.633,0.000,2.733,9.456,-0.443,-2.384,15.436,0.000,2.652,9.537,-1.694,0.000,0.000,0.000,0.000,0,-0.002,0.017,788,1032,1259,944,2.747,9.430
464,0.000,-4.274,19.633,0.000,2.731,9.456,-0.412,-2.384,15.436,0.005,2.709,9.554,-1.541,0.000,0.000,0.000,0.000,0,-0.002,0.017,788,1033,1259,944,2.747,9.339
465,0.000,-4.274,19.633,0.000,2.704,9.451,-0.504,-2.362,15.436,0.000,2.704,9.533,-1.450,0.000,0.000,0.000,0.000,0,-0.002,0.018,788,1033,1259,943,2.655,9.430
466,0.000,-4.274,19.633,0.000,2.735,9.434,-0.473,-2.362,15.436,0.000,2.716,9.516,-1.328,0.000,0.000,0.000,0.000,0,-0.003,0.018,788,1033,1259,944,2.655,9.430
467,0.000,-4.252,19.633,-0.016,2.731,9.456,-0.565,-2.340,15.436,0.005,2.759,9.480,-1.328,0.000,0.000,0.000,0.000,0,-0.002,0.018,788,1032,1259,944,2.655,9.430
468,0.000,-4.252,19.633,0.005,2.707,9.494,-0.473,-2.340,15.436,-0.005,2.714,9.456,-1.236,0.000,0.000,0.000,0.000,0,-0.002,0.017,787,1033,1259,944,2.655,9.430
469,0.000,-4.230,19.633,0.005,2.781,9.487,-0.534,-2.318,15.436,-0.005,2.711,9.482,-1.266,0.000,0.000,0.000,0.000,0,-0.002,0.016,788,1032,1259,944,2.655,9.430
470,0.000,-4.230,19.633,-0.005,2.805,9.451,-0.595,-2.296,15.436,0.000,2.747,9.485,-1.297,0.000,0.000,0.000,0.000,0,-0.002,0.016,787,1032,1259,944,2.655,9.430
471,0.000,-4.208,19.633,0.000,2.745,9.413,-0.504,-2.296,15.436,-0.005,2.738,9.485,-1.328,0.000,0.000,0.000,0.000,0,-0.002,0.016,787,1031,1259,944,2.655,9.430
472,0.000,-4.208,19.633,-0.005,2.747,9.446,-0.504,-2.274,15.436,-0.005,2.723,9.485,-1.236,0.000,0.000,0.000,0.000,0,-0.002,0.016,788,1031,1258,943,2.747,9.430
473,0.000,-4.186,19.633,0.000,2.767,9.482,-0.534,-2.252,15.436,-0.005,2.735,9.466,-1.144,0.000,0.000,0.000,0.000,0,-0.002,0.016,787,1032,1259,943,2.747,9.430
474,0.000,-4.186,19.633,0.000,2.767,9.478,-0.504,-2.252,15.436,-0.005,2.750,9.427,-1.114,0.000,0.000,0.000,0.000,0,-0.002,0.016,787,1032,1259,943,2.655,9.339
475,0.000,-4.164,19.633,0.005,2.802,9.525,-0.381,-2.230,15.436,-0.016,2.735,9.413,-1.083,0.000,0.000,0.000,0.000,0,-0.002,0.016,787,1031,1259,943,2.747,9.430
476,0.000,-4.164,19.633,-0.005,2.807,9.497,-0.412,-2.208,15.436,0.000,2.711,9.423,-1.114,0.000,0.000,0.000,0.000,0,-0.002,0.016,787,1031,1259,943,2.747,9.430
477,0.000,-4.142,19.633,0.000,2.788,9.466,-0.320,-2.208,15.436,0.016,2.711,9.413,-1.083,0.000,0.000,0.000,0.000,0,-0.002,0.015,788,1031,1259,943,2.747,9.430
478,0.000,-4.120,19.633,0.000,2.822,9.516,-0.107,-2.186,15.436,0.000,2.740,9.387,-0.839,0.000,0.000,0.000,0.000,0,-0.002,0.015,787,1030,1259,944,2.747,9.522
479,0.000,-4.120,19.633,0.005,2.829,9.523,-0.137,-2.164,15.436,-0.005,2.747,9.408,-0.717,0.000,0.000,0.000,0.000,0,-0.002,0.015,787,1031,1259,943,2.747,9.430
480,0.000,-4.098,19.633,0.000,2.781,9.475,-0.473,-2.164,15.436,-0.005,2.788,9.389,-0.687,0.000,0.000,0.000,0.000,0,-0.002,0.015,787,1031,1260,944,2.747,9.430
481,0.000,-4.098,19.633,0.000,2.740,9.444,-0.565,-2.142,15.436,0.000,2.781,9.401,-0.748,0.000,0.000,0.000,0.000,0,-0.002,0.015,787,1030,1259,943,2.747,9.430
482,0.000,-4.076,19.633,0.000,2.800,9.461,-0.504,-2.120,15.436,-0.005,2.755,9.418,-0.809,0.000,0.000,0.000,0.000,0,-0.001,0.015,785,1030,1258,943,2.747,9.522
483,0.000,-4.054,19.633,0.000,2.836,9.473,-0.381,-2.098,15.436,0.000,2.728,9.401,-0.687,0.000,0.000,0.000,0.000,0,-0.002,0.015,787,1029,1260,943,2.747,9.430
484,0.000,-4.054,19.633,0.000,2.822,9.490,-0.290,-2.098,15.436,0.000,2.719,9.382,-0.473,0.000,0.000,0.000,0.000,0,-0.002,0.015,787,1030,1259,944,2.655,9.430
485,0.000,-4.032,19.633,0.016,2.879,9.509,-0.229,-2.076,15.436,-0.005,2.721,9.372,-0.473,0.000,0.000,0.000,0.000,0,-0.002,0.014,787,1029,1259,943,2.747,9.430
486,0.000,-4.010,19.633,-0.005,2.915,9.516,-0.259,-2.076,15.436,0.005,2.719,9.348,-0.443,0.000,0.000,0.000,0.000,0,-0.002,0.015,787,1030,1258,943,2.747,9.430
487,0.000,-3.988,19.611,-0.005,2.886,9.497,-0.137,-2.054,15.436,-0.005,2.752,9.327,-0.473,0.000,0.000,0.000,0.000,0,-0.002,0.014,787,1029,1260,944,2.747,9.430
488,0.000,-3.966,19.611,0.000,2.843,9.516,-0.107,-2.033,15.436,0.000,2.771,9.327,-0.443,0.000,0.000,0.000,0.000,0,-0.002,0.014,786,1030,1260,943,2.838,9.430
489,0.000,-3.966,19.611,0.000,2.848,9.518,-0.137,-2.033,15.436,0.000,2.786,9.339,-0.412,0.000,0.000,0.000,0.000,0,-0.002,0.013,784,1030,1258,944,2.838,9.430
490,0.000,-3.944,19.611,-0.005,2.881,9.530,-0.320,-2.011,15.436,-0.005,2.790,9.334,-0.290,0.000,0.000,0.000,0.000,0,-0.002,0.013,787,1032,1258,944,2.838,9.430
491,0.000,-3.922,19.611,0.000,2.884,9.530,-0.229,-1.989,15.436,0.000,2.779,9.332,-0.107,0.000,0.000,0.000,0.000,0,-0.002,0.013,786,1029,1259,943,2.838,9.430
492,0.000,-3.922,19.611,-0.005,2.913,9.509,-0.046,-1.967,15.436,0.000,2.759,9.317,0.000,0.000,0.000,0.000,0.000,0,-0.002,0.013,787,1029,1259,943,2.838,9.430
493,0.000,-3.878,19.611,0.000,3.001,9.521,-0.046,-1.945,15.436,-0.005,2.752,9.300,-0.076,0.000,0.000,0.000,0.000,0,-0.002,0.013,787,1029,1259,944,2.838,9.522
494,0.000,-3.856,19.611,-0.005,2.984,9.502,0.000,-1.945,15.436,0.005,2.745,9.312,-0.168,0.000,0.000,0.000,0.000,0,-0.002,0.014,787,1029,1258,943,2.838,9.522
495,0.000,-3.834,19.611,-0.016,2.877,9.492,-0.046,-1.923,15.436,-0.005,2.788,9.320,-0.046,0.000,0.000,0.000,0.000,0,-0.002,0.015,787,1028,1259,943,2.838,9.430
496,0.000,-3.812,19.611,-0.005,2.917,9.516,-0.046,-1.901,15.436,-0.005,2.819,9.291,0.076,0.000,0.000,0.000,0.000,0,-0.001,0.016,788,1029,1259,943,2.930,9.522
497,0.000,-3.812,19.611,0.000,2.953,9.521,0.000,-1.879,15.436,-0.005,2.798,9.300,0.076,0.000,0.000,0.000,0.000,0,-0.001,0.017,787,1028,1259,945,2.930,9.430
498,0.000,-3.790,19.611,-0.005,2.881,9.537,0.076,-1.879,15.436,0.005,2.798,9.312,0.046,0.000,0.000,0.000,0.000,0,-0.002,0.017,787,1028,1259,943,2.838,9.430
499,0.000,-3.768,19.611,0.000,2.925,9.573,0.168,-1.857,15.436,0.005,2.779,9.265,0.229,0.000,0.000,0.000,0.000,0,-0.001,0.018,786,1028,1259,942,2.838,9.430
500,0.000,-3.746,19.611,-0.005,2.968,9.552,0.107,-1.835,15.436,0.005,2.762,9.255,0.412,0.000,0.000,0.000,0.000,0,-0.001,0.018,787,1029,1259,943,2.930,9.522
501,0.000,-3.724,19.611,-0.016,2.996,9.566,0.046,-1.835,15.436,0.005,2.757,9.245,0.412,0.000,0.000,0.000,0.000,0,-0.002,0.021,786,1028,1259,944,2.838,9.522
502,0.000,-3.702,19.611,0.000,3.039,9.571,0.107,-1.813,15.436,0.005,2.726,9.253,0.534,0.000,0.000,0.000,0.000,0,-0.001,0.024,787,1027,1259,944,2.838,9.522
503,0.000,-3.680,19.611,0.000,2.999,9.504,0.137,-1.813,15.436,0.016,2.743,9.267,0.626,0.000,0.000,0.000,0.000,0,-0.001,0.026,787,1027,1259,943,2.930,9.522
504,0.000,-3.659,19.611,0.000,3.049,9.516,0.290,-1.791,15.436,0.005,2.774,9.217,0.656,0.000,0.000,0.000,0.000,0,-0.001,0.027,787,1028,1259,944,2.930,9.522
505,0.000,-3.637,19.611,0.000,3.054,9.537,0.504,-1.769,15.436,-0.005,2.776,9.231,0.809,0.000,0.000,0.000,0.000,0,-0.002,0.026,786,1028,1259,943,3.021,9.522
506,0.000,-3.593,19.611,0.000,2.946,9.499,0.320,-1.769,15.436,0.000,2.841,9.257,1.022,0.000,0.000,0.000,0.000,0,-0.001,0.026,789,1027,1259,944,2.930,9.430
507,0.000,-3.593,19.611,0.005,3.018,9.533,0.259,-1.747,15.436,0.000,2.865,9.257,0.961,0.000,0.000,0.000,0.000,0,-0.001,0.025,786,1026,1259,943,3.021,9.430
508,0.000,-3.549,19.611,0.000,3.090,9.525,0.351,-1.725,15.436,0.000,2.800,9.296,0.900,0.000,0.000,0.000,0.000,0,-0.001,0.023,787,1027,1259,944,3.021,9.522
509,0.000,-3.527,19.611,0.000,3.071,9.494,0.504,-1.703,15.436,0.005,2.798,9.303,0.870,0.000,0.000,0.000,0.000,0,-0.002,0.024,787,1027,1259,944,2.930,9.430
510,0.000,-3.505,19.611,0.005,3.059,9.530,0.565,-1.703,15.436,0.000,2.805,9.284,1.053,0.000,0.000,0.000,0.000,0,-0.002,0.024,787,1027,1259,944,2.930,9.522
511,0.000,-3.483,19.611,-0.005,3.085,9.542,0.565,-1.681,15.436,0.000,2.850,9.281,1.053,0.000,0.000,0.000,0.000,0,-0.002,0.024,787,1026,1259,943,3.021,9.522
512,0.000,-3.439,19.611,0.005,3.145,9.502,0.595,-1.659,15.436,0.005,2.850,9.308,1.114,0.000,0.000,0.000,0.000,0,-0.002,0.024,787,1027,1258,943,3.021,9.430
513,0.000,-3.417,19.611,0.005,3.099,9.480,0.626,-1.637,15.436,0.000,2.831,9.291,1.236,0.000,0.000,0.000,0.000,0,-0.002,0.023,786,1026,1259,943,3.021,9.522
514,0.000,-3.373,19.611,0.000,3.008,9.502,0.504,-1.615,15.436,-0.005,2.896,9.248,1.511,0.000,0.000,0.000,0.000,0,-0.002,0.023,787,1026,1259,943,3.021,9.522
515,0.000,-3.373,19.611,0.000,3.011,9.518,0.534,-1.593,15.436,-0.005,2.903,9.262,1.602,0.000,0.000,0.000,0.000,0,-0.002,0.023,787,1026,1259,944,3.113,9.430
516,0.000,-3.351,19.611,0.005,3.083,9.504,0.748,-1.571,15.436,0.000,2.879,9.296,1.724,0.000,0.000,0.000,0.000,0,-0.002,0.023,788,1026,1259,943,3.021,9.430
517,0.000,-3.307,19.611,0.005,3.061,9.466,0.687,-1.571,15.436,-0.016,2.843,9.317,1.755,0.000,0.000,0.000,0.000,0,-0.002,0.023,787,1026,1259,944,2.930,9.430
518,0.000,-3.285,19.611,0.000,3.028,9.473,0.656,-1.549,15.436,0.000,2.860,9.317,1.816,0.000,0.000,0.000,0.000,0,-0.002,0.023,787,1026,1259,943,2.930,9.430
519,0.000,-3.263,19.611,-0.005,3.066,9.506,0.626,-1.527,15.436,0.000,2.874,9.351,1.846,0.000,0.000,0.000,0.000,0,-0.002,0.024,786,1026,1260,943,3.021,9.430
520,0.000,-3.241,19.611,0.000,3.049,9.490,0.504,-1.527,15.436,0.000,2.841,9.391,1.877,0.000,0.000,0.000,0.000,0,-0.002,0.025,787,1025,1259,944,3.021,9.430
521,0.000,-3.219,19.611,0.000,3.075,9.468,0.565,-1.505,15.436,0.000,2.865,9.408,1.968,0.000,0.000,0.000,0.000,0,-0.002,0.025,786,1026,1258,943,3.021,9.430
522,0.000,-3.197,19.611,-0.016,3.111,9.456,0.778,-1.505,15.436,0.000,2.893,9.423,2.152,0.000,0.000,0.000,0.000,0,-0.002,0.025,787,1024,1259,943,3.021,9.430
523,0.000,-3.175,19.611,0.000,3.095,9.458,0.778,-1.483,15.436,0.000,2.910,9.384,2.213,0.000,0.000,0.000,0.000,0,-0.002,0.024,787,1025,1259,943,3.021,9.430
524,0.000,-3.153,19.611,-0.005,3.109,9.473,0.900,-1.461,15.436,0.000,2.913,9.411,2.426,0.000,0.000,0.000,0.000,0,-0.002,0.023,787,1024,1259,943,3.021,9.430
525,0.000,-3.131,19.611,0.000,3.114,9.478,1.053,-1.439,15.436,-0.005,2.953,9.420,2.548,0.000,0.000,0.000,0.000,0,-0.002,0.023,787,1025,1259,943,3.021,9.430
526,0.000,-3.087,19.611,0.000,3.102,9.432,0.992,-1.439,15.436,0.000,2.949,9.442,2.670,0.000,0.000,0.000,0.000,0,-0.002,0.022,787,1025,1260,943,3.021,9.430
527,0.000,-3.065,19.611,0.016,3.135,9.487,0.992,-1.417,15.436,0.000,2.934,9.475,2.792,0.000,0.000,0.000,0.000,0,-0.002,0.022,787,1025,1260,943,3.021,9.430
528,0.000,-3.043,19.611,0.005,3.071,9.442,1.114,-1.395,15.436,-0.005,2.946,9.480,2.701,0.000,0.000,0.000,0.000,0,-0.002,0.021,784,1024,1258,944,3.113,9.430
529,0.000,-3.021,19.611,0.000,3.087,9.456,1.205,-1.373,15.436,0.005,2.925,9.499,2.640,0.000,0.000,0.000,0.000,0,-0.003,0.021,787,1024,1258,943,3.021,9.430
530,0.000,-2.999,19.611,0.000,3.135,9.518,1.053,-1.373,15.436,-0.005,2.934,9.504,2.762,0.000,0.000,0.000,0.000,0,-0.002,0.020,787,1024,1259,943,3.113,9.430
531,0.000,-2.977,19.611,0.000,3.133,9.528,1.144,-1.351,15.436,0.000,2.934,9.514,3.006,0.000,0.000,0.000,0.000,0,-0.003,0.020,788,1024,1259,943,3.021,9.430
532,0.000,-2.955,19.611,0.000,3.159,9.533,1.419,-1.351,15.436,0.000,2.963,9.518,3.128,0.000,0.000,0.000,0.000,0,-0.003,0.019,787,1025,1259,943,3.021,9.430
533,0.000,-2.933,19.611,0.000,3.097,9.490,1.419,-1.329,15.436,0.000,3.004,9.528,3.128,0.000,0.000,0.000,0.000,0,-0.003,0.019,787,1024,1259,943,3.113,9.430
534,0.000,-2.911,19.611,-0.005,3.080,9.480,1.541,-1.307,15.436,-0.005,2.980,9.516,3.250,0.000,0.000,0.000,0.000,0,-0.002,0.018,787,1024,1259,942,3.113,9.522
535,0.000,-2.889,19.611,-0.005,3.200,9.497,1.602,-1.307,15.436,0.000,2.980,9.537,3.403,0.000,0.000,0.000,0.000,0,-0.002,0.017,788,1024,1259,943,3.113,9.522
536,0.000,-2.867,19.611,0.005,3.202,9.511,1.602,-1.285,15.436,0.000,2.982,9.566,3.525,0.000,0.000,0.000,0.000,0,-0.002,0.017,787,1024,1259,945,3.021,9.430
537,0.000,-2.824,19.611,-0.005,3.231,9.530,1.724,-1.285,15.436,0.000,2.934,9.566,3.525,0.000,0.000,0.000,0.000,0,-0.002,0.017,788,1024,1259,943,3.021,9.430
538,0.000,-2.802,19.611,0.000,3.269,9.482,1.846,-1.263,15.436,0.000,2.937,9.583,3.555,0.000,0.000,0.000,0.000,0,-0.002,0.017,787,1024,1259,942,3.113,9.430
539,0.000,-2.758,19.611,0.016,3.233,9.470,1.846,-1.263,15.436,0.000,2.975,9.621,3.738,0.000,0.000,0.000,0.000,0,-0.002,0.017,787,1025,1259,943,3.113,9.430
540,0.000,-2.736,19.611,0.000,3.267,9.542,1.938,-1.263,15.436,-0.005,2.980,9.650,3.677,0.000,0.000,0.000,0.000,0,-0.002,0.017,787,1024,1259,943,3.204,9.522
541,0.000,-2.714,19.611,-0.005,3.245,9.545,2.029,-1.241,15.436,-0.005,2.958,9.640,3.677,0.000,0.000,0.000,0.000,0,-0.002,0.017,787,1024,1259,943,3.204,9.430
542,0.000,-2.670,19.611,0.000,3.209,9.497,2.152,-1.241,15.436,0.000,3.004,9.624,3.922,0.000,0.000,0.000,0.000,0,-0.002,0.017,788,1023,1259,943,3.204,9.430
543,0.000,-2.648,19.611,-0.005,3.253,9.535,2.152,-1.220,15.436,0.005,3.011,9.643,4.135,0.000,0.000,0.000,0.000,0,-0.002,0.018,788,1023,1259,943,3.204,9.522
544,0.000,-2.626,19.611,-0.005,3.229,9.521,2.182,-1.220,15.436,0.000,2.944,9.674,4.196,0.000,0.000,0.000,0.000,0,-0.002,0.019,788,1023,1259,943,3.204,9.522
545,0.000,-2.604,19.611,0.005,3.200,9.461,2.365,-1.220,15.436,0.000,2.941,9.662,4.288,0.000,0.000,0.000,0.000,0,-0.001,0.018,789,1023,1259,944,3.204,9.430
546,0.000,-2.582,19.611,0.000,3.262,9.490,2.548,-1.198,15.436,0.005,2.977,9.628,4.410,0.000,0.000,0.000,0.000,0,-0.001,0.018,788,1024,1259,943,3.204,9.522
547,0.000,-2.538,19.611,-0.005,3.231,9.454,2.548,-1.198,15.436,0.005,3.001,9.626,4.715,0.000,0.000,0.000,0.000,0,-0.001,0.016,788,1023,1259,943,3.204,9.522
548,0.000,-2.516,19.611,0.005,3.214,9.444,2.579,-1.198,15.436,0.005,2.968,9.643,4.807,0.000,0.000,0.000,0.000,0,-0.002,0.017,788,1023,1259,943,3.113,9.430
549,0.000,-2.494,19.611,0.000,3.233,9.490,2.640,-1.176,15.436,-0.005,2.937,9.631,4.746,0.000,0.000,0.000,0.000,0,-0.002,0.016,788,1023,1259,943,3.204,9.430
550,0.000,-2.472,19.611,-0.005,3.212,9.499,2.762,-1.176,15.436,0.005,2.913,9.648,4.837,0.000,0.000,0.000,0.000,0,-0.001,0.016,788,1023,1259,943,3.204,9.430
551,0.000,-2.450,19.611,0.000,3.281,9.504,2.853,-1.176,15.436,0.016,2.951,9.676,5.020,0.000,0.000,0.000,0.000,0,-0.001,0.016,788,1023,1258,943,3.204,9.430
552,0.000,-2.428,19.611,-0.005,3.274,9.461,2.884,-1.176,15.436,0.000,2.980,9.707,5.173,0.000,0.000,0.000,0.000,0,-0.002,0.016,788,1023,1259,943,3.204,9.430
553,0.000,-2.406,19.611,-0.005,3.202,9.473,2.976,-1.176,15.436,-0.005,2.972,9.691,5.325,0.000,0.000,0.000,0.000,0,-0.002,0.015,788,1023,1260,943,3.204,9.430
554,0.000,-2.384,19.611,-0.005,3.224,9.509,3.037,-1.176,15.436,0.000,2.920,9.700,5.325,0.000,0.000,0.000,0.000,0,-0.001,0.016,788,1022,1259,943,3.204,9.430
555,0.000,-2.362,19.611,0.005,3.200,9.485,3.037,-1.176,15.436,-0.005,2.920,9.755,5.325,0.000,0.000,0.000,0.000,0,-0.002,0.017,789,1022,1259,944,3.204,9.430
556,0.000,-2.340,19.611,-0.005,3.171,9.449,3.159,-1.176,15.414,0.016,2.992,9.741,5.386,0.000,0.000,0.000,0.000,0,-0.002,0.017,787,1021,1259,943,3.113,9.430
557,0.000,-2.318,19.611,0.000,3.226,9.492,3.159,-1.176,15.414,0.005,2.996,9.748,5.631,0.000,0.000,0.000,0.000,0,-0.002,0.018,788,1022,1259,943,3.204,9.430
558,0.000,-2.296,19.611,-0.005,3.233,9.516,3.220,-1.176,15.414,0.000,3.006,9.741,5.783,0.000,0.000,0.000,0.000,0,-0.002,0.020,788,1023,1259,943,3.113,9.430
559,0.000,-2.296,19.611,-0.005,3.233,9.509,3.250,-1.176,15.414,-0.005,2.970,9.758,5.875,0.000,0.000,0.000,0.000,0,-0.002,0.020,788,1022,1259,943,3.113,9.430
560,0.000,-2.274,19.611,0.005,3.229,9.511,3.433,-1.176,15.414,-0.005,2.977,9.770,5.783,0.000,0.000,0.000,0.000,0,-0.002,0.021,787,1022,1258,943,3.204,9.430
561,0.000,-2.252,19.611,0.005,3.229,9.432,3.616,-1.176,15.414,0.000,2.941,9.794,5.905,0.000,0.000,0.000,0.000,0,-0.002,0.025,788,1021,1259,943,3.204,9.430
562,0.000,-2.230,19.611,-0.005,3.188,9.463,3.647,-1.176,15.414,0.000,2.934,9.815,6.271,0.000,0.000,0.000,0.000,0,-0.002,0.030,788,1022,1259,943,3.204,9.430
563,0.000,-2.208,19.611,-0.005,3.207,9.482,3.433,-1.176,15.414,0.000,2.965,9.858,6.394,0.000,0.000,0.000,0.000,0,-0.002,0.035,788,1021,1258,943,3.204,9.430
564,0.000,-2.208,19.611,0.000,3.260,9.487,3.494,-1.198,15.414,0.000,2.946,9.882,6.332,0.000,0.000,0.000,0.000,0,-0.002,0.036,788,1022,1258,943,3.204,9.430
565,0.000,-2.186,19.611,-0.005,3.221,9.482,3.738,-1.198,15.414,0.005,2.927,9.865,6.241,0.000,0.000,0.000,0.000,0,-0.002,0.035,788,1021,1260,943,3.113,9.430
566,0.000,-2.164,19.611,0.000,3.209,9.473,3.861,-1.198,15.414,0.000,2.949,9.839,6.302,0.000,0.000,0.000,0.000,0,-0.002,0.035,789,1022,1260,942,3.204,9.430
567,0.000,-2.142,19.611,0.016,3.243,9.470,3.922,-1.198,15.414,-0.016,2.949,9.870,6.516,0.000,0.000,0.000,0.000,0,-0.002,0.036,785,1021,1259,943,3.204,9.430
568,0.000,-2.120,19.611,0.000,3.312,9.470,3.922,-1.220,15.414,0.016,2.915,9.885,6.699,0.000,0.000,0.000,0.000,0,-0.002,0.038,788,1022,1258,944,3.204,9.430
569,0.000,-2.098,19.611,0.016,3.250,9.466,4.044,-1.220,15.414,-0.005,2.965,9.858,6.729,0.000,0.000,0.000,0.000,0,-0.002,0.038,788,1021,1259,942,3.204,9.430
570,0.000,-2.098,19.611,0.016,3.162,9.461,4.166,-1.220,15.392,0.000,2.972,9.834,6.760,0.000,0.000,0.000,0.000,0,-0.002,0.038,788,1021,1258,942,3.204,9.430
571,0.000,-2.076,19.611,0.005,3.207,9.444,4.227,-1.241,15.392,-0.005,2.970,9.846,6.943,0.000,0.000,0.000,0.000,0,-0.002,0.037,788,1021,1258,943,3.296,9.430
572,0.000,-2.076,19.611,0.005,3.233,9.432,4.288,-1.241,15.392,0.000,2.925,9.865,7.340,0.000,0.000,0.000,0.000,0,-0.002,0.037,788,1021,1259,943,3.204,9.430
573,0.000,-2.054,19.611,0.000,3.169,9.437,4.227,-1.241,15.392,0.000,2.865,9.885,7.340,0.000,0.000,0.000,0.000,0,-0.002,0.037,789,1021,1259,943,3.113,9.430
574,0.000,-2.033,19.611,0.005,3.176,9.411,4.288,-1.263,15.392,-0.005,2.901,9.947,7.340,0.000,0.000,0.000,0.000,0,-0.002,0.037,789,1021,1259,943,3.204,9.430
575,0.000,-2.033,19.611,-0.016,3.238,9.394,4.410,-1.285,15.392,0.000,2.891,9.942,7.370,0.000,0.000,0.000,0.000,0,-0.002,0.037,789,1020,1259,945,3.204,9.430
576,0.000,-2.011,19.611,0.000,3.195,9.420,4.593,-1.307,15.392,0.005,2.829,9.877,7.462,0.000,0.000,0.000,0.000,0,-0.002,0.038,789,1021,1259,943,3.113,9.430
577,0.000,-2.011,19.611,-0.005,3.176,9.423,4.685,-1.307,15.392,0.000,2.877,9.887,7.706,0.000,0.000,0.000,0.000,0,-0.002,0.040,789,1021,1259,942,3.113,9.339
578,0.000,-1.989,19.611,0.000,3.214,9.432,4.807,-1.329,15.392,-0.005,2.879,9.921,8.103,0.000,0.000,0.000,0.000,0,-0.001,0.042,789,1022,1258,942,3.204,9.339
579,0.000,-1.989,19.611,0.000,3.217,9.442,4.776,-1.351,15.392,-0.027,2.779,9.916,8.286,0.000,0.000,0.000,0.000,0,-0.002,0.048,789,1020,1259,943,3.113,9.339
580,0.000,-1.967,19.611,0.005,3.219,9.423,4.807,-1.373,15.370,0.000,2.735,9.935,8.194,0.000,0.000,0.000,0.000,0,-0.002,0.056,789,1020,1259,943,3.113,9.339
581,0.000,-1.945,19.611,-0.005,3.238,9.437,5.081,-1.417,15.370,0.016,2.740,9.976,8.225,0.000,0.000,0.000,0.000,0,-0.002,0.063,789,1020,1259,942,3.204,9.430
582,0.000,-1.945,19.611,-0.016,3.250,9.425,5.417,-1.439,15.370,0.000,2.752,9.966,8.347,0.000,0.000,0.000,0.000,0,-0.002,0.069,790,1020,1259,943,3.204,9.430
583,0.000,-1.923,19.611,0.005,3.269,9.394,5.386,-1.461,15.370,0.005,2.723,9.968,8.438,0.000,0.000,0.000,0.000,0,-0.002,0.068,789,1020,1259,943,3.204,9.339
584,0.000,-1.901,19.611,0.000,3.233,9.420,5.356,-1.505,15.370,0.000,2.666,9.964,8.469,0.000,0.000,0.000,0.000,0,-0.002,0.067,792,1020,1259,943,3.204,9.430
585,0.000,-1.901,19.611,0.005,3.181,9.432,5.447,-1.549,15.348,0.016,2.654,9.925,8.499,0.000,0.000,0.000,0.000,0,-0.002,0.066,790,1021,1258,943,3.204,9.339
586,0.000,-1.901,19.611,0.005,3.207,9.418,5.478,-1.571,15.348,-0.005,2.680,9.959,8.652,0.000,0.000,0.000,0.000,0,-0.002,0.065,790,1020,1259,943,3.204,9.339
587,0.000,-1.879,19.611,0.000,3.205,9.411,5.417,-1.615,15.348,-0.005,2.647,9.983,8.682,0.000,0.000,0.000,0.000,0,-0.003,0.063,790,1020,1259,943,3.204,9.339
588,0.000,-1.879,19.611,-0.005,3.147,9.420,5.447,-1.637,15.348,0.005,2.676,9.968,8.743,0.000,0.000,0.000,0.000,0,-0.003,0.063,790,1020,1259,943,3.113,9.430
589,0.000,-1.879,19.611,0.000,3.181,9.418,5.631,-1.681,15.348,-0.005,2.702,9.973,8.774,0.000,0.000,0.000,0.000,0,-0.003,0.061,790,1020,1258,943,3.204,9.339
590,0.000,-1.857,19.611,-0.005,3.202,9.391,5.875,-1.725,15.326,0.000,2.618,9.995,8.896,0.000,0.000,0.000,0.000,0,-0.002,0.061,790,1020,1259,943,3.204,9.339
591,0.000,-1.857,19.611,0.000,3.188,9.365,5.936,-1.747,15.326,0.005,2.585,10.002,8.896,0.000,0.000,0.000,0.000,0,-0.002,0.059,790,1019,1259,943,3.113,9.339
592,0.000,-1.835,19.611,0.027,3.205,9.358,6.119,-1.791,15.326,-0.005,2.573,10.002,8.804,0.000,0.000,0.000,0.000,0,-0.002,0.058,790,1020,1259,943,3.113,9.339
593,0.000,-1.835,19.611,0.005,3.166,9.384,6.149,-1.835,15.326,-0.005,2.585,10.009,8.927,0.000,0.000,0.000,0.000,0,-0.001,0.057,791,1020,1259,943,3.113,9.339
594,0.000,-1.835,19.611,0.005,3.159,9.377,6.241,-1.879,15.304,-0.016,2.597,9.995,8.957,0.000,0.000,0.000,0.000,0,-0.001,0.056,791,1020,1259,942,3.113,9.339
595,0.000,-1.835,19.611,0.000,3.171,9.348,6.424,-1.923,15.304,0.000,2.558,9.997,9.079,0.000,0.000,0.000,0.000,0,-0.001,0.055,790,1019,1259,943,3.204,9.339
596,0.000,-1.813,19.611,-0.005,3.130,9.360,6.363,-1.967,15.304,-0.005,2.568,10.014,9.232,0.000,0.000,0.000,0.000,0,-0.001,0.053,791,1019,1259,943,3.113,9.339
597,0.000,-1.813,19.611,0.005,3.159,9.382,6.363,-2.011,15.282,0.000,2.577,10.021,9.232,0.000,0.000,0.000,0.000,0,-0.001,0.053,790,1020,1259,943,3.113,9.339
598,0.000,-1.813,19.611,0.005,3.121,9.336,6.607,-2.054,15.282,-0.005,2.549,10.021,9.140,0.000,0.000,0.000,0.000,0,-0.001,0.052,791,1019,1259,943,3.113,9.339
599,0.000,-1.813,19.611,0.000,3.123,9.353,6.821,-2.098,15.282,-0.005,2.498,10.040,9.201,0.000,0.000,0.000,0.000,0,-0.001,0.051,790,1020,1258,944,3.113,9.339
600,0.000,-1.813,19.611,0.005,3.176,9.322,6.760,-2.142,15.282,0.000,2.498,10.050,9.323,0.000,0.000,0.000,0.000,0,-0.001,0.051,791,1018,1260,944,3.113,9.339
601,0.000,-1.813,19.611,-0.005,3.142,9.291,6.851,-2.208,15.260,0.016,2.513,10.021,9.384,0.000,0.000,0.000,0.000,0,-0.001,0.051,791,1019,1259,943,3.113,9.247
602,0.000,-1.813,19.611,0.000,3.080,9.315,7.065,-2.252,15.260,0.005,2.460,10.043,9.232,0.000,0.000,0.000,0.000,0,-0.001,0.053,791,1020,1259,943,3.113,9.339
603,0.000,-1.813,19.611,0.000,3.090,9.327,7.034,-2.296,15.238,-0.005,2.474,10.033,9.171,0.000,0.000,0.000,0.000,0,-0.001,0.056,791,1019,1258,943,3.113,9.247
604,0.000,-1.813,19.611,0.000,3.142,9.348,7.126,-2.340,15.238,-0.016,2.494,9.992,9.201,0.000,0.000,0.000,0.000,0,-0.001,0.058,791,1019,1260,943,3.113,9.247
605,0.000,-1.813,19.611,-0.005,3.126,9.346,7.156,-2.406,15.238,-0.005,2.415,10.040,9.140,0.000,0.000,0.000,0.000,0,-0.001,0.062,791,1019,1259,942,3.021,9.247
606,0.000,-1.813,19.611,0.000,3.063,9.339,7.187,-2.450,15.216,0.000,2.479,10.045,9.171,0.000,0.000,0.000,0.000,0,-0.001,0.068,791,1019,1258,943,3.021,9.247
607,0.000,-1.813,19.611,0.005,3.071,9.327,7.309,-2.494,15.216,0.000,2.422,10.086,9.232,0.000,0.000,0.000,0.000,0,-0.001,0.075,791,1021,1258,943,3.113,9.339
608,0.000,-1.813,19.611,0.000,3.133,9.334,7.279,-2.560,15.194,-0.005,2.419,10.102,9.110,0.000,0.000,0.000,0.000,0,-0.001,0.082,791,1019,1259,943,3.113,9.339
609,0.000,-1.813,19.611,-0.016,3.078,9.341,7.370,-2.604,15.194,0.000,2.336,10.098,9.049,0.000,0.000,0.000,0.000,0,-0.001,0.090,792,1019,1259,942,3.021,9.339
610,0.000,-1.813,19.611,0.000,3.032,9.320,7.431,-2.670,15.172,-0.016,2.333,10.055,8.957,0.000,0.000,0.000,0.000,0,-0.002,0.096,792,1019,1259,943,3.021,9.247
611,0.000,-1.835,19.611,0.005,3.087,9.341,7.309,-2.736,15.172,0.000,2.410,10.016,9.018,0.000,0.000,0.000,0.000,0,-0.001,0.101,792,1018,1258,943,3.113,9.247
612,0.000,-1.835,19.611,-0.005,3.128,9.351,7.401,-2.780,15.150,0.000,2.336,10.021,8.957,0.000,0.000,0.000,0.000,0,-0.002,0.101,792,1018,1259,942,3.021,9.339
613,0.000,-1.835,19.611,0.005,3.099,9.336,7.492,-2.846,15.128,0.000,2.273,10.012,8.652,0.000,0.000,0.000,0.000,0,-0.002,0.100,793,1018,1259,943,3.021,9.247
614,0.000,-1.835,19.611,0.000,3.066,9.334,7.645,-2.911,15.106,-0.005,2.254,10.021,8.408,0.000,0.000,0.000,0.000,0,-0.001,0.098,793,1017,1259,944,3.021,9.339
615,0.000,-1.835,19.611,0.000,3.037,9.317,7.706,-2.977,15.106,0.005,2.202,10.064,8.072,0.000,0.000,0.000,0.000,0,-0.001,0.096,793,1018,1259,943,3.113,9.339
616,0.000,-1.835,19.611,-0.005,3.049,9.332,7.706,-3.043,15.084,0.000,2.216,10.091,7.889,0.000,0.000,0.000,0.000,0,-0.001,0.095,794,1018,1259,942,3.021,9.247
617,0.000,-1.857,19.611,0.000,3.075,9.327,7.645,-3.131,15.062,0.000,2.249,10.093,7.675,0.000,0.000,0.000,0.000,0,-0.001,0.096,793,1020,1259,942,3.021,9.247
618,0.000,-1.857,19.611,-0.005,3.023,9.267,7.523,-3.197,15.041,-0.027,2.257,10.086,7.248,0.000,0.000,0.000,0.000,0,-0.001,0.102,792,1018,1259,943,3.021,9.247
619,0.000,-1.857,19.611,-0.016,3.054,9.274,7.523,-3.263,15.019,0.005,2.276,10.069,6.760,0.000,0.000,0.000,0.000,0,-0.001,0.106,793,1018,1259,943,3.021,9.247
620,0.000,-1.857,19.611,0.005,3.049,9.272,7.584,-3.329,14.997,-0.005,2.259,10.050,6.302,0.000,0.000,0.000,0.000,0,-0.002,0.108,793,1018,1259,943,3.021,9.247
621,0.000,-1.879,19.611,0.000,3.001,9.265,7.523,-3.395,14.975,0.005,2.276,10.023,6.027,0.000,0.000,0.000,0.000,0,-0.002,0.110,793,1018,1259,943,3.021,9.247
622,0.000,-1.879,19.611,0.000,2.826,9.224,7.034,-3.461,14.931,0.000,2.302,10.016,5.753,0.000,0.000,0.000,0.000,0,-0.002,0.116,793,1018,1259,943,3.021,9.247
623,0.000,-1.923,19.611,-0.005,2.731,9.138,6.638,-3.527,14.909,0.000,2.259,10.014,5.203,0.000,0.000,0.000,0.000,0,-0.001,0.115,795,1017,1259,943,3.021,9.247
624,0.000,-1.945,19.611,0.000,2.877,9.130,6.516,-3.615,14.865,0.000,2.168,10.055,4.501,0.000,0.000,0.000,0.000,0,-0.001,0.114,793,1015,1259,943,2.930,9.247
625,0.000,-1.945,19.611,0.016,2.917,9.190,6.302,-3.680,14.843,0.005,2.134,10.057,4.074,0.000,0.000,0.000,0.000,0,-0.001,0.111,793,1017,1259,943,2.747,9.155
626,0.000,-1.967,19.611,0.000,2.929,9.209,6.058,-3.768,14.799,0.005,2.151,10.004,3.220,0.000,0.000,0.000,0.000,0,-0.001,0.110,793,1018,1259,943,2.655,9.064
627,0.000,-1.967,19.611,0.000,2.992,9.166,5.783,-3.856,14.755,-0.016,2.125,9.976,2.457,0.000,0.000,0.000,0.000,0,-0.001,0.109,793,1017,1259,943,2.838,9.064
628,0.000,-1.967,19.611,0.005,3.037,9.126,5.783,-3.922,14.711,0.005,2.199,9.942,1.907,0.000,0.000,0.000,0.000,0,-0.001,0.107,793,1017,1259,943,2.838,9.155
629,0.000,-1.967,19.611,0.000,2.960,9.104,5.661,-4.010,14.667,0.000,2.324,9.892,1.389,0.000,0.000,0.000,0.000,0,-0.001,0.106,794,1018,1258,943,2.930,9.155
630,0.000,-1.989,19.611,0.005,2.826,9.071,5.509,-4.076,14.623,0.027,2.340,9.849,1.022,0.000,0.000,0.000,0.000,0,-0.002,0.104,794,1017,1259,943,2.930,9.155
631,0.000,-2.011,19.611,-0.005,2.647,9.051,5.356,-4.120,14.579,0.016,2.326,9.868,0.809,0.000,0.000,0.000,0.000,0,-0.002,0.103,793,1017,1258,943,3.021,9.064
632,0.000,-2.033,19.611,-0.005,2.652,9.001,5.081,-4.186,14.557,0.027,2.338,9.830,0.534,0.000,0.000,0.000,0.000,0,-0.002,0.101,794,1017,1259,943,2.930,9.064
633,0.000,-2.076,19.611,0.000,2.692,8.972,4.654,-4.252,14.513,0.016,2.278,9.798,0.168,0.000,0.000,0.000,0.000,0,-0.002,0.099,795,1018,1259,942,2.747,9.064
634,0.000,-2.098,19.611,0.000,2.695,8.963,4.379,-4.318,14.469,0.000,2.254,9.796,-0.076,0.000,0.000,0.000,0.000,0,-0.001,0.097,793,1017,1259,943,2.564,8.972
635,0.000,-2.120,19.611,0.016,2.625,8.929,4.196,-4.384,14.425,0.005,2.321,9.741,-0.198,0.000,0.000,0.000,0.000,0,-0.001,0.095,795,1017,1259,943,2.564,8.972
636,0.000,-2.142,19.611,0.005,2.570,8.932,3.769,-4.428,14.381,-0.005,2.453,9.688,-0.168,0.000,0.000,0.000,0.000,0,-0.001,0.094,793,1017,1259,943,2.655,8.972
637,0.000,-2.186,19.611,-0.005,2.558,8.953,3.464,-4.450,14.337,0.000,2.599,9.604,-0.046,0.000,0.000,0.000,0.000,0,-0.001,0.093,794,1017,1259,943,2.655,8.881
638,0.000,-2.230,19.611,-0.005,2.484,8.944,3.372,-4.472,14.315,0.005,2.692,9.533,0.229,0.000,0.000,0.000,0.000,0,-0.001,0.091,793,1017,1258,943,2.564,8.881
639,0.000,-2.274,19.611,0.000,2.391,8.965,3.098,-4.493,14.271,0.016,2.704,9.475,0.687,0.000,0.000,0.000,0.000,0,-0.001,0.090,794,1016,1259,943,2.564,8.881
640,0.000,-2.340,19.611,0.005,2.355,8.984,2.701,-4.493,14.228,0.005,2.534,9.403,1.083,0.000,0.000,0.000,0.000,0,-0.002,0.089,794,1017,1259,943,2.472,8.881
641,0.000,-2.384,19.611,-0.016,2.369,9.020,2.365,-4.537,14.206,0.000,2.312,9.391,1.419,0.000,0.000,0.000,0.000,0,-0.001,0.089,794,1017,1259,943,2.472,8.881
642,0.000,-2.428,19.611,0.000,2.441,9.073,2.060,-4.581,14.162,-0.016,2.161,9.427,1.572,0.000,0.000,0.000,0.000,0,-0.001,0.089,794,1017,1258,943,2.380,8.881
643,0.000,-2.472,19.611,0.000,2.506,9.150,2.152,-4.647,14.140,0.000,2.139,9.468,1.816,0.000,0.000,0.000,0.000,0,-0.002,0.088,794,1017,1260,943,2.289,8.972
644,0.000,-2.516,19.611,0.000,2.537,9.212,2.304,-4.713,14.118,0.000,2.190,9.494,2.426,0.000,0.000,0.000,0.000,0,-0.001,0.087,794,1017,1260,942,2.289,8.972
645,0.000,-2.560,19.611,0.000,2.580,9.221,2.029,-4.757,14.074,0.005,2.206,9.461,2.914,0.000,0.000,0.000,0.000,0,-0.001,0.087,792,1017,1258,943,2.380,9.064
646,0.000,-2.582,19.611,0.016,2.589,9.322,1.968,-4.823,14.052,0.016,2.225,9.363,3.250,0.000,0.000,0.000,0.000,0,-0.001,0.090,794,1021,1258,944,2.472,9.064
647,0.000,-2.626,19.611,0.005,2.585,9.391,1.816,-4.867,14.030,-0.005,2.120,9.423,3.433,0.000,0.000,0.000,0.000,0,-0.001,0.096,795,1017,1259,943,2.472,9.155
648,0.000,-2.670,19.611,0.000,2.558,9.415,1.633,-4.933,13.986,-0.016,2.060,9.420,3.586,0.000,0.000,0.000,0.000,0,-0.001,0.102,795,1017,1259,942,2.564,9.155
649,0.000,-2.714,19.611,0.016,2.532,9.451,1.480,-4.999,13.964,-0.005,2.043,9.396,3.861,0.000,0.000,0.000,0.000,0,-0.000,0.106,795,1017,1259,943,2.564,9.247
650,0.000,-2.736,19.611,0.000,2.632,9.494,1.328,-5.065,13.942,0.000,1.981,9.432,4.166,0.000,0.000,0.000,0.000,0,-0.000,0.107,794,1018,1259,942,2.564,9.339
651,0.000,-2.758,19.611,0.005,2.757,9.561,1.358,-5.131,13.898,-0.005,1.914,9.444,4.379,0.000,0.000,0.000,0.000,0,-0.000,0.105,795,1016,1259,942,2.472,9.339
652,0.000,-2.780,19.611,0.000,2.769,9.600,1.389,-5.219,13.876,0.005,1.869,9.406,4.410,0.000,0.000,0.000,0.000,0,-0.000,0.104,794,1017,1259,943,2.472,9.430
653,0.000,-2.802,19.611,0.005,2.817,9.669,1.328,-5.306,13.854,0.005,1.847,9.382,4.471,0.000,0.000,0.000,0.000,0,-0.000,0.103,795,1016,1258,945,2.564,9.430
654,0.000,-2.824,19.611,0.000,2.881,9.715,1.205,-5.372,13.832,0.000,1.847,9.391,4.654,0.000,0.000,0.000,0.000,0,-0.001,0.101,795,1017,1259,943,2.747,9.522
655,0.000,-2.824,19.611,0.000,2.855,9.719,1.114,-5.460,13.810,-0.005,1.842,9.425,4.868,0.000,0.000,0.000,0.000,0,-0.000,0.100,796,1017,1259,941,2.747,9.522
656,0.000,-2.846,19.611,0.005,2.802,9.715,0.961,-5.526,13.788,-0.005,1.833,9.399,4.990,0.000,0.000,0.000,0.000,0,-0.000,0.099,796,1017,1259,942,2.747,9.613
657,0.000,-2.867,19.611,0.000,2.788,9.739,0.992,-5.614,13.766,-0.005,1.802,9.348,5.112,0.000,0.000,0.000,0.000,0,-0.001,0.098,795,1017,1259,943,2.838,9.705
658,0.000,-2.889,19.611,0.005,2.826,9.763,1.053,-5.680,13.744,-0.005,1.797,9.279,5.478,0.000,0.000,0.000,0.000,0,-0.001,0.102,796,1017,1259,943,2.838,9.705
659,0.000,-2.911,19.611,0.005,2.908,9.789,1.114,-5.746,13.722,-0.005,1.759,9.233,5.753,0.000,0.000,0.000,0.000,0,-0.001,0.108,797,1017,1259,943,2.747,9.705
660,0.000,-2.911,19.611,0.000,2.989,9.827,1.236,-5.834,13.700,0.000,1.696,9.202,5.936,0.000,0.000,0.000,0.000,0,-0.001,0.112,797,1016,1259,943,2.747,9.705
661,0.000,-2.911,19.611,0.000,2.996,9.786,1.297,-5.900,13.678,0.000,1.648,9.181,6.180,0.000,0.000,0.000,0.000,0,-0.002,0.111,796,1017,1259,943,2.747,9.705
662,0.000,-2.911,19.611,0.005,2.968,9.753,1.236,-5.988,13.656,0.000,1.581,9.181,6.363,0.000,0.000,0.000,0.000,0,-0.002,0.108,796,1017,1259,943,2.838,9.705
663,0.000,-2.911,19.611,-0.005,2.932,9.741,1.419,-6.076,13.656,-0.016,1.541,9.205,6.668,0.000,0.000,0.000,0.000,0,-0.001,0.107,797,1014,1259,943,2.930,9.796
664,0.000,-2.911,19.611,0.005,2.980,9.746,1.328,-6.163,13.634,-0.005,1.560,9.207,6.973,0.000,0.000,0.000,0.000,0,-0.001,0.104,797,1016,1259,943,2.930,9.705
665,0.000,-2.911,19.611,0.000,3.023,9.779,1.328,-6.251,13.612,0.005,1.505,9.212,6.973,0.000,0.000,0.000,0.000,0,-0.002,0.106,797,1016,1260,943,2.930,9.705
666,0.000,-2.911,19.611,0.000,3.083,9.731,1.358,-6.339,13.590,0.005,1.438,9.214,7.095,0.000,0.000,0.000,0.000,0,-0.002,0.106,797,1017,1259,943,2.930,9.705
667,0.000,-2.889,19.611,-0.005,3.121,9.710,1.419,-6.449,13.590,-0.005,1.445,9.171,7.279,0.000,0.000,0.000,0.000,0,-0.001,0.109,798,1016,1259,943,2.930,9.705
668,0.000,-2.889,19.611,0.005,3.142,9.688,1.572,-6.537,13.568,-0.016,1.407,9.159,7.401,0.000,0.000,0.000,0.000,0,-0.001,0.114,797,1017,1259,943,3.021,9.705
669,0.000,-2.867,19.611,-0.016,3.126,9.686,1.633,-6.625,13.546,0.005,1.419,9.197,7.340,0.000,0.000,0.000,0.000,0,-0.001,0.119,797,1016,1259,943,3.021,9.705
670,0.000,-2.846,19.611,0.000,3.109,9.676,1.816,-6.713,13.546,-0.005,1.438,9.245,7.492,0.000,0.000,0.000,0.000,0,-0.001,0.119,798,1016,1260,943,3.113,9.705
671,0.000,-2.846,19.633,0.005,3.126,9.650,1.846,-6.801,13.524,0.000,1.366,9.224,7.370,0.000,0.000,0.000,0.000,0,-0.002,0.119,798,1016,1259,943,3.113,9.613
672,0.000,-2.824,19.633,0.000,3.109,9.662,1.846,-6.889,13.502,0.000,1.332,9.238,7.218,0.000,0.000,0.000,0.000,0,-0.001,0.121,799,1016,1260,943,3.113,9.613
673,0.000,-2.802,19.633,0.000,3.039,9.626,1.846,-6.976,13.480,0.005,1.292,9.322,7.126,0.000,0.000,0.000,0.000,0,-0.001,0.126,798,1015,1260,943,3.021,9.613
674,0.000,-2.802,19.633,0.005,3.028,9.585,1.694,-7.086,13.480,-0.005,1.201,9.344,6.882,0.000,0.000,0.000,0.000,0,-0.001,0.132,799,1016,1259,943,3.113,9.613
675,0.000,-2.780,19.633,0.000,3.047,9.557,1.602,-7.196,13.458,0.000,1.165,9.355,6.546,0.000,0.000,0.000,0.000,0,-0.001,0.138,799,1017,1260,943,3.021,9.613
676,0.000,-2.780,19.633,0.000,3.066,9.542,1.633,-7.284,13.436,0.005,1.191,9.406,6.241,0.000,0.000,0.000,0.000,0,-0.001,0.143,799,1016,1259,943,3.021,9.613
677,0.000,-2.758,19.633,0.005,3.095,9.559,1.663,-7.394,13.415,0.005,1.189,9.437,5.692,0.000,0.000,0.000,0.000,0,-0.001,0.152,799,1016,1259,943,3.021,9.522
678,0.000,-2.758,19.633,-0.016,3.061,9.523,1.602,-7.504,13.393,0.000,1.186,9.494,5.051,0.000,0.000,0.000,0.000,0,-0.001,0.160,800,1015,1260,943,3.021,9.522
679,0.000,-2.736,19.633,-0.016,3.023,9.458,1.480,-7.592,13.371,0.000,1.285,9.478,4.562,0.000,0.000,0.000,0.000,0,-0.001,0.164,800,1016,1260,943,3.021,9.522
680,0.000,-2.714,19.633,0.005,3.016,9.449,1.266,-7.680,13.349,0.005,1.304,9.420,4.074,0.000,0.000,0.000,0.000,0,-0.001,0.164,800,1014,1259,942,3.021,9.522
681,0.000,-2.714,19.633,0.000,2.917,9.418,1.022,-7.767,13.327,-0.016,1.280,9.434,3.616,0.000,0.000,0.000,0.000,0,-0.001,0.162,800,1016,1259,943,3.021,9.522
682,0.000,-2.714,19.633,-0.005,2.848,9.346,0.778,-7.877,13.305,-0.005,1.287,9.490,3.067,0.000,0.000,0.000,0.000,0,-0.001,0.159,800,1016,1260,943,3.021,9.430
683,0.000,-2.714,19.633,0.000,2.829,9.288,0.381,-7.965,13.283,0.027,1.270,9.547,2.457,0.000,0.000,0.000,0.000,0,-0.000,0.157,800,1016,1260,942,2.930,9.430
684,0.000,-2.714,19.655,-0.005,2.879,9.233,0.168,-8.053,13.239,0.038,1.265,9.542,1.755,0.000,0.000,0.000,0.000,0,-0.000,0.155,802,1016,1259,943,2.838,9.339
685,0.000,-2.714,19.655,0.005,2.934,9.147,0.198,-8.141,13.217,-0.005,1.296,9.509,1.022,0.000,0.000,0.000,0.000,0,-0.000,0.152,801,1018,1258,944,2.838,9.339
686,0.000,-2.692,19.655,0.005,2.920,9.118,0.015,-8.229,13.195,-0.005,1.318,9.497,0.473,0.000,0.000,0.000,0.000,0,-0.000,0.150,801,1015,1260,943,2.747,9.247
687,0.000,-2.692,19.655,0.000,2.853,9.111,-0.320,-8.317,13.173,-0.016,1.308,9.537,0.015,0.000,0.000,0.000,0.000,0,-0.000,0.148,802,1016,1260,943,2.838,9.155
688,0.000,-2.692,19.655,-0.005,2.716,9.039,-0.748,-8.405,13.129,-0.016,1.459,9.561,-0.443,0.000,0.000,0.000,0.000,0,-0.000,0.146,802,1015,1260,944,2.930,9.064
689,0.000,-2.692,19.655,0.005,2.609,8.982,-0.961,-8.471,13.107,0.000,1.636,9.511,-0.778,0.000,0.000,0.000,0.000,0,-0.000,0.145,802,1015,1260,943,2.838,9.064
690,0.000,-2.714,19.655,0.000,2.563,8.929,-1.266,-8.515,13.085,-0.016,1.641,9.499,-1.144,0.000,0.000,0.000,0.000,0,-0.000,0.142,802,1015,1260,942,2.838,9.064
691,0.000,-2.714,19.677,0.000,2.496,8.862,-1.602,-8.580,13.041,0.016,1.615,9.451,-1.266,0.000,0.000,0.000,0.000,0,-0.000,0.140,803,1016,1259,943,2.655,8.972
692,0.000,-2.758,19.677,-0.005,2.436,8.826,-2.121,-8.624,13.019,0.005,1.648,9.444,-1.266,0.000,0.000,0.000,0.000,0,-0.000,0.138,804,1016,1259,944,2.564,8.972
693,0.000,-2.780,19.677,0.000,2.376,8.762,-2.640,-8.668,12.997,0.000,1.699,9.432,-1.236,0.000,0.000,0.000,0.000,0,-0.001,0.136,804,1016,1260,943,2.564,8.881
694,0.000,-2.802,19.677,0.000,2.328,8.716,-2.945,-8.712,12.975,0.000,1.768,9.454,-1.114,0.000,0.000,0.000,0.000,0,-0.001,0.134,805,1016,1260,941,2.472,8.789
695,0.000,-2.846,19.677,0.000,2.283,8.680,-3.311,-8.734,12.953,0.000,1.787,9.509,-1.144,0.000,0.000,0.000,0.000,0,-0.000,0.132,804,1017,1260,943,2.380,8.789
696,0.000,-2.867,19.677,0.005,2.257,8.659,-3.555,-8.778,12.931,0.027,1.790,9.492,-1.083,0.000,0.000,0.000,0.000,0,-0.001,0.130,804,1016,1260,943,2.289,8.698
697,0.000,-2.911,19.677,0.000,2.281,8.673,-3.952,-8.800,12.909,-0.005,1.850,9.437,-0.748,0.000,0.000,0.000,0.000,0,-0.001,0.129,805,1016,1259,943,2.289,8.698
698,0.000,-2.933,19.699,0.000,2.233,8.676,-4.440,-8.822,12.909,-0.005,1.873,9.396,-0.351,0.000,0.000,0.000,0.000,0,-0.000,0.127,805,1015,1259,943,2.197,8.606
699,0.000,-2.977,19.699,0.000,2.213,8.702,-4.837,-8.844,12.887,0.005,1.917,9.396,0.000,0.000,0.000,0.000,0.000,0,-0.000,0.127,805,1016,1260,943,2.197,8.606
700,0.000,-3.021,19.699,0.005,2.154,8.719,-5.142,-8.844,12.865,0.000,1.909,9.399,0.717,0.000,0.000,0.000,0.000,0,-0.000,0.125,805,1016,1259,944,2.197,8.606
701,0.000,-3.065,19.699,-0.005,2.163,8.723,-5.356,-8.866,12.865,-0.016,1.797,9.320,1.328,0.000,0.000,0.000,0.000,0,0.000,0.124,807,1016,1260,943,2.197,8.606
702,0.000,-3.109,19.699,-0.005,2.197,8.771,-5.570,-8.888,12.865,0.000,1.756,9.315,1.785,0.000,0.000,0.000,0.000,0,0.000,0.123,805,1013,1260,944,2.197,8.698
703,0.000,-3.131,19.721,0.000,2.213,8.834,-5.814,-8.910,12.843,-0.005,1.684,9.387,2.243,0.000,0.000,0.000,0.000,0,0.000,0.123,806,1015,1259,943,2.106,8.698
704,0.000,-3.175,19.721,0.005,2.240,8.903,-6.119,-8.932,12.843,0.000,1.632,9.425,2.701,0.000,0.000,0.000,0.000,0,0.000,0.128,806,1016,1260,944,2.106,8.698
705,0.000,-3.197,19.721,-0.005,2.295,8.948,-6.241,-8.954,12.843,0.000,1.603,9.497,3.159,0.000,0.000,0.000,0.000,0,0.000,0.134,806,1016,1260,944,2.197,8.698
706,0.000,-3.241,19.721,-0.005,2.355,9.027,-6.424,-8.998,12.843,0.005,1.498,9.545,3.616,0.000,0.000,0.000,0.000,0,0.000,0.136,807,1016,1260,943,2.197,8.789
707,0.000,-3.263,19.743,0.000,2.369,9.116,-6.699,-9.042,12.843,0.000,1.459,9.571,3.922,0.000,0.000,0.000,0.000,0,0.001,0.134,807,1017,1259,944,2.197,8.881
708,0.000,-3.263,19.743,0.016,2.465,9.188,-6.699,-9.086,12.843,0.005,1.478,9.583,4.257,0.000,0.000,0.000,0.000,0,0.001,0.133,807,1016,1260,943,2.289,8.881
709,0.000,-3.285,19.743,0.005,2.539,9.257,-6.668,-9.130,12.843,0.005,1.462,9.557,4.227,0.000,0.000,0.000,0.000,0,0.002,0.131,807,1017,1260,943,2.289,8.972
710,0.000,-3.285,19.765,0.016,2.546,9.308,-6.851,-9.174,12.843,0.000,1.462,9.566,4.471,0.000,0.000,0.000,0.000,0,0.002,0.133,808,1016,1261,943,2.289,9.064
711,0.000,-3.285,19.765,-0.005,2.577,9.372,-6.851,-9.218,12.821,0.000,1.459,9.583,4.593,0.000,0.000,0.000,0.000,0,0.002,0.138,809,1016,1261,943,2.380,9.155
712,0.000,-3.307,19.765,0.000,2.618,9.439,-6.912,-9.284,12.821,-0.005,1.414,9.566,4.623,0.000,0.000,0.000,0.000,0,0.002,0.144,808,1016,1260,943,2.472,9.247
713,0.000,-3.285,19.787,0.005,2.661,9.463,-7.034,-9.328,12.821,0.005,1.347,9.528,4.562,0.000,0.000,0.000,0.000,0,0.002,0.148,809,1016,1260,943,2.472,9.247
714,0.000,-3.285,19.787,0.000,2.700,9.490,-7.004,-9.371,12.821,0.000,1.289,9.528,4.471,0.000,0.000,0.000,0.000,0,0.002,0.155,809,1016,1261,943,2.564,9.339
715,0.000,-3.285,19.809,0.016,2.774,9.535,-6.760,-9.437,12.821,0.005,1.258,9.561,4.318,0.000,0.000,0.000,0.000,0,0.002,0.165,809,1016,1261,944,2.564,9.430
716,0.000,-3.263,19.809,0.016,2.814,9.502,-6.760,-9.503,12.821,0.000,1.210,9.554,4.105,0.000,0.000,0.000,0.000,0,0.002,0.185,809,1016,1259,943,2.655,9.430
717,0.000,-3.241,19.831,0.005,2.846,9.540,-6.699,-9.547,12.821,0.000,1.225,9.542,3.799,0.000,0.000,0.000,0.000,0,0.002,0.204,810,1015,1261,944,2.655,9.430
718,0.000,-3.219,19.853,0.005,2.850,9.583,-6.577,-9.613,12.821,0.005,1.229,9.511,3.616,0.000,0.000,0.000,0.000,0,0.001,0.217,810,1016,1261,943,2.747,9.522
719,0.000,-3.197,19.853,0.000,2.848,9.564,-6.332,-9.679,12.821,-0.005,1.205,9.518,3.311,0.000,0.000,0.000,0.000,0,0.001,0.216,810,1017,1260,943,2.747,9.430
720,0.000,-3.175,19.875,-0.016,2.802,9.545,-6.241,-9.723,12.821,-0.005,1.217,9.593,3.037,0.000,0.000,0.000,0.000,0,0.001,0.213,811,1016,1259,944,2.838,9.522
721,0.000,-3.153,19.897,-0.005,2.831,9.533,-5.997,-9.789,12.821,0.000,1.234,9.585,2.701,0.000,0.000,0.000,0.000,0,0.000,0.210,810,1016,1260,944,2.838,9.522
722,0.000,-3.109,19.919,0.000,2.898,9.511,-5.692,-9.833,12.821,0.000,1.275,9.547,2.396,0.000,0.000,0.000,0.000,0,0.000,0.208,811,1016,1261,943,2.838,9.522
723,0.000,-3.087,19.940,-0.016,2.848,9.492,-5.600,-9.877,12.821,0.000,1.294,9.557,1.999,0.000,0.000,0.000,0.000,0,0.000,0.205,811,1016,1259,943,2.747,9.522
724,0.000,-3.065,19.962,-0.005,2.764,9.454,-5.600,-9.943,12.821,0.000,1.306,9.588,1.785,0.000,0.000,0.000,0.000,0,-0.000,0.202,812,1018,1259,944,2.747,9.522
725,0.000,-3.021,19.984,-0.016,2.752,9.396,-5.295,-9.987,12.821,-0.005,1.306,9.578,1.511,0.000,0.000,0.000,0.000,0,-0.000,0.199,812,1016,1260,943,2.838,9.430
726,0.000,-2.999,20.006,-0.005,2.731,9.353,-5.020,-10.031,12.799,0.000,1.366,9.571,1.205,0.000,0.000,0.000,0.000,0,-0.000,0.197,813,1016,1259,943,2.838,9.430
727,0.000,-2.999,20.028,0.005,2.601,9.269,-5.081,-10.053,12.799,0.016,1.409,9.602,0.809,0.000,0.000,0.000,0.000,0,-0.001,0.194,813,1016,1259,944,2.747,9.430
728,0.000,-2.977,20.050,0.000,2.575,9.190,-5.112,-10.097,12.799,0.005,1.404,9.616,0.473,0.000,0.000,0.000,0.000,0,-0.001,0.192,813,1016,1259,944,2.747,9.339
729,0.000,-2.955,20.072,0.005,2.582,9.133,-5.112,-10.141,12.799,0.000,1.426,9.626,0.320,0.000,0.000,0.000,0.000,0,-0.001,0.189,813,1016,1259,942,2.655,9.339
730,0.000,-2.933,20.094,-0.016,2.570,9.097,-5.203,-10.163,12.777,-0.005,1.483,9.619,0.015,0.000,0.000,0.000,0.000,0,-0.001,0.186,814,1016,1258,943,2.564,9.247
731,0.000,-2.933,20.116,-0.005,2.541,9.130,-5.173,-10.184,12.777,-0.005,1.531,9.602,-0.381,0.000,0.000,0.000,0.000,0,-0.001,0.185,815,1015,1258,945,2.564,9.155
732,0.000,-2.911,20.138,-0.005,2.400,9.047,-5.417,-10.206,12.777,0.000,1.584,9.631,-0.687,0.000,0.000,0.000,0.000,0,-0.002,0.182,815,1016,1258,944,2.564,9.064
733,0.000,-2.911,20.160,-0.005,2.297,8.910,-5.661,-10.228,12.777,0.000,1.610,9.667,-1.114,0.000,0.000,0.000,0.000,0,-0.002,0.180,816,1015,1259,942,2.564,9.064
734,0.000,-2.911,20.204,-0.016,2.379,8.893,-5.844,-10.250,12.755,0.005,1.598,9.715,-1.633,0.000,0.000,0.000,0.000,0,-0.002,0.177,816,1017,1258,942,2.472,9.064
735,0.000,-2.889,20.226,0.000,2.443,8.893,-5.844,-10.272,12.755,0.000,1.589,9.724,-2.090,0.000,0.000,0.000,0.000,0,-0.003,0.176,816,1015,1258,944,2.380,8.972
736,0.000,-2.889,20.270,-0.005,2.410,8.853,-5.753,-10.294,12.755,0.000,1.646,9.681,-2.640,0.000,0.000,0.000,0.000,0,-0.003,0.175,816,1016,1258,943,2.289,8.881
737,0.000,-2.867,20.292,-0.016,2.283,8.738,-5.844,-10.294,12.733,0.005,1.692,9.693,-2.792,0.000,0.000,0.000,0.000,0,-0.002,0.177,817,1016,1258,944,2.289,8.881
738,0.000,-2.867,20.314,0.000,2.202,8.649,-5.936,-10.294,12.733,0.005,1.759,9.746,-3.037,0.000,0.000,0.000,0.000,0,-0.003,0.181,818,1016,1257,943,2.380,8.881
739,0.000,-2.867,20.358,-0.005,2.087,8.551,-6.058,-10.294,12.711,0.000,1.873,9.719,-3.403,0.000,0.000,0.000,0.000,0,-0.003,0.184,818,1016,1258,944,2.380,8.789
740,0.000,-2.867,20.380,-0.016,2.120,8.568,-6.302,-10.294,12.711,-0.027,1.900,9.736,-3.647,0.000,0.000,0.000,0.000,0,-0.003,0.185,815,1016,1257,944,2.197,8.698
741,0.000,-2.867,20.424,-0.016,2.079,8.597,-6.485,-10.294,12.689,0.016,1.857,9.770,-4.105,0.000,0.000,0.000,0.000,0,-0.003,0.183,819,1014,1257,943,2.197,8.606
742,0.000,-2.867,20.468,-0.016,2.046,8.558,-6.485,-10.294,12.689,0.005,1.835,9.786,-4.593,0.000,0.000,0.000,0.000,0,-0.003,0.182,819,1016,1257,943,2.014,8.515
743,0.000,-2.867,20.490,0.000,2.087,8.541,-6.668,-10.272,12.667,-0.005,1.862,9.772,-4.990,0.000,0.000,0.000,0.000,0,-0.004,0.184,820,1016,1257,943,2.106,8.515
744,0.000,-2.846,20.534,0.000,2.142,8.539,-6.577,-10.272,12.667,0.000,1.873,9.722,-5.295,0.000,0.000,0.000,0.000,0,-0.004,0.186,820,1016,1257,943,2.014,8.515
745,0.000,-2.846,20.578,-0.005,2.034,8.453,-6.455,-10.272,12.645,-0.005,1.945,9.734,-5.600,0.000,0.000,0.000,0.000,0,-0.004,0.190,821,1016,1257,943,2.014,8.515
746,0.000,-2.846,20.622,0.000,1.847,8.438,-6.271,-10.250,12.623,0.016,2.087,9.707,-5.844,0.000,0.000,0.000,0.000,0,-0.003,0.191,821,1016,1257,943,2.014,8.515
747,0.000,-2.867,20.666,0.005,1.715,8.453,-6.485,-10.228,12.623,-0.016,2.170,9.724,-6.180,0.000,0.000,0.000,0.000,0,-0.004,0.189,821,1016,1257,943,2.106,8.515
748,0.000,-2.889,20.710,-0.005,1.567,8.376,-6.851,-10.206,12.602,0.016,2.230,9.815,-6.424,0.000,0.000,0.000,0.000,0,-0.004,0.187,822,1016,1257,943,2.014,8.423
749,0.000,-2.911,20.753,0.016,1.454,8.328,-7.095,-10.163,12.580,0.005,2.290,9.837,-6.821,0.000,0.000,0.000,0.000,0,-0.003,0.185,822,1016,1257,943,1.831,8.423
750,0.000,-2.955,20.797,-0.005,1.421,8.350,-7.553,-10.141,12.558,0.005,2.290,9.853,-7.248,0.000,0.000,0.000,0.000,0,-0.004,0.183,824,1016,1257,943,1.648,8.423
751,0.000,-2.977,20.841,-0.005,1.423,8.357,-8.042,-10.097,12.558,0.000,2.326,9.868,-7.584,0.000,0.000,0.000,0.000,0,-0.004,0.181,823,1015,1256,943,1.556,8.331
752,0.000,-3.021,20.885,0.000,1.399,8.288,-8.286,-10.053,12.536,0.000,2.336,9.870,-8.072,0.000,0.000,0.000,0.000,0,-0.003,0.178,825,1016,1257,943,1.373,8.240
753,0.000,-3.043,20.929,0.027,1.373,8.264,-8.835,-10.031,12.514,0.000,2.302,9.868,-8.347,0.000,0.000,0.000,0.000,0,-0.003,0.176,825,1016,1257,943,1.373,8.331
754,0.000,-3.087,20.973,0.000,1.258,8.228,-9.537,-10.009,12.492,0.005,2.348,9.899,-8.804,0.000,0.000,0.000,0.000,0,-0.003,0.174,825,1016,1256,942,1.373,8.331
755,0.000,-3.109,20.995,0.005,1.184,8.127,-10.300,-9.965,12.470,0.000,2.455,9.913,-9.262,0.000,0.000,0.000,0.000,0,-0.003,0.172,824,1016,1256,942,1.373,8.240
756,0.000,-3.153,21.039,0.000,1.146,8.087,-11.063,-9.921,12.448,0.005,2.503,9.947,-9.812,0.000,0.000,0.000,0.000,0,-0.003,0.171,826,1015,1257,943,1.373,8.240
757,0.000,-3.175,21.083,0.005,1.141,8.070,-11.734,-9.877,12.426,0.000,2.470,10.009,-10.422,0.000,0.000,0.000,0.000,0,-0.003,0.169,825,1016,1257,942,1.190,8.148
758,0.000,-3.197,21.105,-0.016,1.160,8.000,-12.467,-9.855,12.382,-0.005,2.439,9.966,-11.093,0.000,0.000,0.000,0.000,0,-0.003,0.168,826,1016,1255,942,1.099,8.057
759,0.000,-3.197,21.149,-0.005,1.105,7.895,-13.413,-9.811,12.360,0.000,2.448,9.911,-11.612,0.000,0.000,0.000,0.000,0,-0.003,0.167,826,1016,1256,942,1.099,8.057
760,0.000,-3.219,21.193,0.000,1.172,7.766,-14.267,-9.789,12.338,-0.016,2.484,9.901,-12.131,0.000,0.000,0.000,0.000,0,-0.003,0.165,827,1016,1257,942,1.099,8.057
761,0.000,-3.197,21.215,-0.016,1.234,7.627,-15.122,-9.767,12.316,0.016,2.434,9.892,-12.711,0.000,0.000,0.000,0.000,0,-0.002,0.164,828,1016,1257,941,1.099,7.965
762,0.000,-3.197,21.259,0.000,1.308,7.608,-15.946,-9.723,12.272,0.016,2.410,9.853,-13.474,0.000,0.000,0.000,0.000,0,-0.002,0.161,830,1016,1255,942,1.099,7.874
763,0.000,-3.175,21.281,0.016,1.397,7.665,-16.648,-9.701,12.250,0.000,2.458,9.827,-14.023,0.000,0.000,0.000,0.000,0,-0.002,0.161,828,1019,1255,942,1.099,7.691
764,0.000,-3.153,21.325,-0.016,1.289,7.617,-17.136,-9.679,12.228,-0.005,2.491,9.815,-14.420,0.000,0.000,0.000,0.000,0,-0.002,0.161,828,1016,1256,941,1.190,7.599
765,0.000,-3.109,21.369,0.005,1.299,7.502,-17.502,-9.657,12.184,-0.016,2.486,9.765,-15.000,0.000,0.000,0.000,0.000,0,-0.002,0.159,829,1016,1256,941,1.282,7.599
766,0.000,-3.087,21.391,0.005,1.462,7.488,-17.899,-9.613,12.162,-0.016,2.482,9.727,-15.396,0.000,0.000,0.000,0.000,0,-0.002,0.157,829,1016,1256,942,1.373,7.599
767,0.000,-3.043,21.435,0.000,1.457,7.545,-18.387,-9.591,12.140,0.005,2.508,9.693,-15.763,0.000,0.000,0.000,0.000,0,-0.002,0.157,829,1016,1256,942,1.282,7.599
768,0.000,-2.999,21.479,-0.027,1.364,7.577,-18.845,-9.547,12.096,0.016,2.558,9.636,-16.129,0.000,0.000,0.000,0.000,0,-0.002,0.155,830,1016,1255,940,1.282,7.416
769,0.000,-2.955,21.523,-0.005,1.428,7.617,-19.181,-9.525,12.074,-0.005,2.585,9.573,-16.281,0.000,0.000,0.000,0.000,0,-0.002,0.154,830,1016,1256,942,1.373,7.416
770,0.000,-2.911,21.566,-0.005,1.390,7.634,-19.425,-9.481,12.052,0.000,2.580,9.528,-16.495,0.000,0.000,0.000,0.000,0,-0.001,0.154,831,1017,1256,942,1.373,7.507
771,0.000,-2.867,21.610,-0.016,1.263,7.624,-19.913,-9.459,12.008,0.000,2.635,9.533,-16.464,0.000,0.000,0.000,0.000,0,-0.002,0.155,830,1016,1256,941,1.282,7.507
772,0.000,-2.824,21.654,0.000,1.313,7.720,-20.340,-9.415,11.986,0.000,2.752,9.470,-16.373,0.000,0.000,0.000,0.000,0,-0.001,0.156,831,1016,1256,940,1.373,7.599
773,0.000,-2.758,21.698,-0.005,1.320,7.842,-20.676,-9.371,11.964,-0.016,2.776,9.437,-16.373,0.000,0.000,0.000,0.000,0,-0.001,0.158,832,1017,1256,940,1.373,7.599
774,0.000,-2.714,21.764,0.000,1.249,7.873,-21.134,-9.328,11.942,0.005,2.661,9.468,-16.587,0.000,0.000,0.000,0.000,0,-0.000,0.160,832,1016,1255,942,1.190,7.599
775,0.000,-2.670,21.808,0.005,1.287,7.873,-21.561,-9.284,11.898,-0.005,2.561,9.466,-16.861,0.000,0.000,0.000,0.000,0,-0.000,0.163,833,1017,1255,941,1.282,7.691
776,0.000,-2.604,21.852,0.005,1.380,7.979,-22.141,-9.262,11.876,-0.016,2.513,9.559,-17.105,0.000,0.000,0.000,0.000,0,0.001,0.165,833,1017,1256,941,1.282,7.782
777,0.000,-2.560,21.896,-0.005,1.536,8.096,-22.324,-9.262,11.854,0.005,2.453,9.590,-17.411,0.000,0.000,0.000,0.000,0,0.001,0.166,834,1016,1256,941,1.190,7.874
778,0.000,-2.494,21.962,0.000,1.622,8.180,-22.538,-9.240,11.810,0.005,2.451,9.609,-17.899,0.000,0.000,0.000,0.000,0,0.002,0.165,834,1017,1256,941,1.282,7.874
779,0.000,-2.428,22.006,0.005,1.711,8.302,-22.660,-9.240,11.789,0.000,2.530,9.607,-18.204,0.000,0.000,0.000,0.000,0,0.003,0.163,834,1016,1256,941,1.373,7.965
780,0.000,-2.362,22.072,0.000,1.826,8.410,-22.599,-9.218,11.767,0.000,2.525,9.645,-18.570,0.000,0.000,0.000,0.000,0,0.005,0.161,835,1017,1255,941,1.465,8.057
781,0.000,-2.296,22.116,0.005,1.840,8.460,-22.690,-9.218,11.723,0.000,2.604,9.686,-18.936,0.000,0.000,0.000,0.000,0,0.006,0.158,835,1017,1255,940,1.556,8.148
782,0.000,-2.230,22.160,0.000,1.790,8.460,-22.812,-9.196,11.679,-0.016,2.716,9.650,-19.333,0.000,0.000,0.000,0.000,0,0.006,0.156,836,1016,1255,940,1.648,8.240
783,0.000,-2.164,22.226,0.005,1.665,8.403,-22.965,-9.174,11.657,-0.016,2.776,9.640,-19.821,0.000,0.000,0.000,0.000,0,0.007,0.154,836,1016,1256,941,1.740,8.331
784,0.000,-2.098,22.270,-0.005,1.562,8.295,-23.331,-9.152,11.613,0.005,2.858,9.683,-20.401,0.000,0.000,0.000,0.000,0,0.007,0.153,836,1016,1255,941,1.831,8.423
785,0.000,-2.054,22.314,-0.005,1.603,8.278,-23.941,-9.152,11.569,0.016,2.908,9.774,-20.798,0.000,0.000,0.000,0.000,0,0.007,0.151,836,1017,1255,940,1.740,8.423
786,0.000,-1.989,22.358,0.000,1.730,8.345,-24.430,-9.130,11.525,-0.005,2.896,9.844,-21.347,0.000,0.000,0.000,0.000,0,0.007,0.152,836,1016,1255,940,1.648,8.331
787,0.000,-1.923,22.423,0.005,1.816,8.403,-24.949,-9.130,11.503,0.005,2.884,9.853,-21.775,0.000,0.000,0.000,0.000,0,0.008,0.154,837,1017,1255,940,1.556,8.240
788,0.000,-1.857,22.467,0.000,1.816,8.345,-25.315,-9.108,11.459,-0.005,2.946,9.801,-22.232,0.000,0.000,0.000,0.000,0,0.008,0.157,837,1016,1255,940,1.556,8.240
789,0.000,-1.791,22.511,-0.005,1.881,8.199,-25.620,-9.086,11.415,0.000,2.977,9.753,-22.568,0.000,0.000,0.000,0.000,0,0.008,0.163,838,1017,1255,940,1.648,8.331
790,0.000,-1.725,22.555,0.016,2.032,8.168,-26.169,-9.086,11.393,-0.005,3.063,9.760,-22.599,0.000,0.000,0.000,0.000,0,0.008,0.167,838,1016,1254,940,1.740,8.331
791,0.000,-1.659,22.599,0.005,1.929,8.101,-26.810,-9.064,11.349,-0.005,3.214,9.760,-22.782,0.000,0.000,0.000,0.000,0,0.007,0.168,839,1017,1254,939,1.740,8.331
792,0.000,-1.593,22.643,-0.005,1.797,8.008,-27.604,-9.042,11.327,0.000,3.315,9.662,-22.812,0.000,0.000,0.000,0.000,0,0.007,0.167,839,1016,1255,940,1.831,8.148
793,0.000,-1.527,22.687,-0.005,1.878,7.976,-28.122,-9.020,11.283,0.000,3.365,9.628,-22.568,0.000,0.000,0.000,0.000,0,0.006,0.165,840,1016,1254,939,2.014,8.148
794,0.000,-1.461,22.731,-0.005,1.838,7.917,-28.428,-8.998,11.261,0.000,3.375,9.674,-22.232,0.000,0.000,0.000,0.000,0,0.005,0.163,839,1017,1254,939,1.923,8.057
795,0.000,-1.395,22.775,0.038,1.955,7.912,-28.550,-8.976,11.239,-0.016,3.317,9.679,-21.775,0.000,0.000,0.000,0.000,0,0.005,0.161,840,1015,1255,940,1.740,7.965
796,0.000,-1.307,22.841,-0.005,2.187,7.960,-28.580,-8.954,11.217,0.000,3.195,9.693,-21.347,0.000,0.000,0.000,0.000,0,0.004,0.158,840,1016,1254,939,1.831,7.965
797,0.000,-1.220,22.885,-0.005,2.261,7.981,-28.641,-8.932,11.173,-0.016,3.114,9.695,-20.890,0.000,0.000,0.000,0.000,0,0.004,0.159,841,1016,1254,939,1.831,7.874
798,0.000,-1.154,22.929,0.000,2.163,7.917,-28.611,-8.910,11.151,0.000,3.150,9.660,-20.401,0.000,0.000,0.000,0.000,0,0.004,0.161,841,1016,1254,939,1.923,7.874
799,0.000,-1.066,22.995,-0.016,2.202,7.876,-28.580,-8.888,11.129,-0.005,3.209,9.633,-19.791,0.000,0.000,0.000,0.000,0,0.003,0.161,842,1016,1255,939,2.106,7.874
800,0.000,-0.978,23.039,0.000,2.422,8.012,-28.336,-8.888,11.107,0.000,3.262,9.657,-19.394,0.000,0.000,0.000,0.000,0,0.003,0.160,843,1016,1255,938,2.197,7.965
801,0.000,-0.890,23.105,0.000,2.374,8.161,-28.244,-8.866,11.085,-0.016,3.267,9.693,-18.906,0.000,0.000,0.000,0.000,0,0.003,0.160,844,1016,1253,939,2.106,7.874
802,0.000,-0.824,23.149,0.005,2.273,8.254,-28.031,-8.844,11.063,0.000,3.150,9.703,-18.418,0.000,0.000,0.000,0.000,0,0.003,0.158,843,1019,1253,939,2.197,7.874
803,0.000,-0.714,23.214,-0.005,2.460,8.412,-27.756,-8.844,11.041,-0.005,2.992,9.741,-18.265,0.000,0.000,0.000,0.000,0,0.003,0.155,844,1017,1253,938,2.380,7.965
804,0.000,-0.626,23.280,0.016,2.707,8.589,-27.298,-8.844,10.997,0.016,2.877,9.808,-18.265,0.000,0.000,0.000,0.000,0,0.003,0.154,844,1016,1253,938,2.289,8.148
805,0.000,-0.538,23.346,0.005,2.632,8.685,-26.993,-8.844,10.976,0.000,2.814,9.882,-18.387,0.000,0.000,0.000,0.000,0,0.004,0.152,844,1017,1253,938,2.197,8.240
806,0.000,-0.428,23.412,0.005,2.618,8.807,-26.810,-8.844,10.954,0.000,2.860,9.923,-18.662,0.000,0.000,0.000,0.000,0,0.005,0.150,845,1016,1253,938,2.380,8.331
807,0.000,-0.341,23.478,0.005,2.719,9.118,-26.383,-8.844,10.910,-0.005,2.898,9.966,-18.906,0.000,0.000,0.000,0.000,0,0.007,0.148,845,1016,1253,938,2.655,8.515
808,0.000,-0.253,23.544,0.016,2.676,9.212,-26.139,-8.844,10.888,0.000,2.893,10.067,-19.181,0.000,0.000,0.000,0.000,0,0.010,0.146,846,1016,1252,938,2.564,8.606
809,0.000,-0.143,23.610,0.000,2.594,9.209,-26.108,-8.844,10.844,0.005,2.953,10.102,-19.791,0.000,0.000,0.000,0.000,0,0.012,0.145,847,1016,1252,939,2.564,8.789
810,0.000,-0.055,23.676,0.005,2.685,9.221,-26.230,-8.866,10.800,0.005,2.982,10.069,-20.676,0.000,0.000,0.000,0.000,0,0.014,0.144,847,1017,1252,938,2.655,9.064
811,0.000,0.000,23.742,0.000,2.891,9.320,-26.169,-8.866,10.756,0.000,2.968,10.069,-21.439,0.000,0.000,0.000,0.000,0,0.016,0.142,848,1016,1252,937,2.655,9.155
812,0.000,0.077,23.808,0.005,2.477,9.250,-26.383,-8.888,10.712,-0.016,2.968,10.126,-22.202,0.000,0.000,0.000,0.000,0,0.018,0.141,848,1018,1251,937,2.564,9.155
813,0.000,0.165,23.852,-0.016,2.553,9.221,-26.902,-8.888,10.668,0.005,3.099,10.225,-22.873,0.000,0.000,0.000,0.000,0,0.018,0.140,848,1017,1251,938,2.655,9.155
814,0.000,0.253,23.918,0.610,3.236,9.320,-27.176,-8.910,10.624,0.016,3.401,10.091,-23.514,0.000,0.000,0.000,0.000,0,0.019,0.139,849,1017,1251,937,2.838,9.247
815,0.000,0.363,23.984,0.621,3.200,9.348,-27.451,-8.910,10.580,0.000,3.363,10.014,-24.308,0.000,0.000,0.000,0.000,0,0.020,0.138,849,1017,1251,937,2.472,9.247
816,0.000,0.472,24.071,0.599,2.812,9.056,-28.092,-8.910,10.536,-0.016,2.980,10.287,-25.223,0.000,0.000,0.000,0.000,0,0.020,0.138,850,1016,1251,937,2.472,9.155
817,0.000,0.604,24.159,0.621,3.657,9.480,-27.207,-8.932,10.492,-0.005,2.913,10.093,-26.139,0.000,0.000,0.000,0.000,0,0.019,0.136,850,1017,1251,937,3.204,9.247
818,0.000,0.758,24.269,0.610,4.213,9.842,-25.528,-8.932,10.448,0.000,2.910,10.059,-26.993,0.000,0.000,0.000,0.000,0,0.019,0.134,853,1017,1250,936,3.113,9.339
819,0.000,0.912,24.379,0.654,3.705,9.470,-23.911,-8.954,10.404,0.016,3.097,9.813,-27.268,0.000,0.000,0.000,0.000,0,0.019,0.133,851,1014,1250,937,2.747,8.972
820,0.000,1.066,24.489,0.632,4.294,9.693,-21.897,-8.954,10.360,-0.016,3.442,9.473,-26.627,0.000,0.000,0.000,0.000,0,0.018,0.133,851,1017,1250,936,3.571,9.430
821,0.000,1.241,24.621,0.643,4.553,9.731,-19.242,-8.954,10.316,0.000,3.688,9.463,-25.650,0.000,0.000,0.000,0.000,0,0.016,0.130,851,1017,1250,936,4.211,9.796
822,0.000,1.417,24.753,0.676,3.700,9.475,-17.563,-8.932,10.272,0.005,3.832,9.588,-24.704,0.000,0.000,0.000,0.000,0,0.016,0.128,852,1017,1249,936,3.662,9.430
823,0.000,1.593,24.906,0.698,2.367,9.190,-17.014,-8.932,10.228,0.000,4.016,9.751,-23.880,0.000,0.000,0.000,0.000,0,0.016,0.127,852,1016,1249,935,4.211,9.613
824,0.000,1.747,25.060,0.709,1.615,9.226,-16.861,-8.932,10.184,-0.005,3.676,9.954,-23.697,0.000,0.000,0.000,0.000,0,0.015,0.126,853,1017,1249,936,4.486,9.705
825,0.000,1.923,25.214,0.698,5.611,10.900,-11.734,-8.932,10.141,-0.005,2.659,10.335,-24.125,0.000,0.000,0.000,0.000,0,0.014,0.127,854,1017,1250,935,3.662,9.430
826,0.000,2.120,25.368,0.731,5.826,12.217,-6.455,-8.954,10.097,-0.005,2.556,10.435,-23.453,0.000,0.000,0.000,0.000,0,0.014,0.127,853,1017,1248,936,2.289,9.155
827,0.000,2.296,25.544,0.731,2.429,11.573,-3.891,-8.976,10.053,0.000,3.537,9.645,-21.805,0.000,0.000,0.000,0.000,0,0.013,0.128,854,1017,1248,935,1.556,9.155
828,0.000,2.450,25.697,0.742,2.553,10.043,-1.785,-8.976,10.009,-0.005,4.213,9.298,-20.035,0.000,0.000,0.000,0.000,0,0.012,0.128,855,1017,1248,935,5.585,10.895
829,0.000,2.626,25.873,0.753,4.512,9.628,2.243,-8.954,9.965,-0.005,4.840,10.057,-18.631,0.000,0.000,0.000,0.000,0,0.012,0.129,855,1017,1248,935,5.768,12.177
830,0.000,2.824,26.049,0.753,3.794,10.043,3.494,-8.954,9.921,-0.005,5.616,10.514,-17.044,0.000,0.000,0.000,0.000,0,0.011,0.129,855,1017,1248,934,2.380,11.536
831,0.000,2.977,26.203,0.786,0.490,10.397,2.823,-8.932,9.877,0.000,5.951,10.181,-15.244,0.000,0.000,0.000,0.000,0,0.010,0.130,855,1017,1248,934,2.472,9.979
832,0.000,3.087,26.379,0.786,0.456,11.065,2.274,-8.888,9.855,0.005,5.711,10.299,-13.535,0.000,0.000,0.000,0.000,0,0.010,0.128,856,1016,1247,934,4.486,9.613
833,0.000,3.219,26.554,0.808,0.796,10.914,2.274,-8.866,9.811,0.005,5.024,10.921,-12.650,0.000,0.000,0.000,0.000,0,0.009,0.127,856,1017,1247,934,3.754,9.979
834,0.000,3.351,26.730,0.797,1.330,10.361,2.548,-8.866,9.789,0.000,4.581,11.087,-12.039,0.000,0.000,0.000,0.000,0,0.009,0.125,857,1016,1247,934,0.458,10.346
835,0.000,3.505,26.906,0.862,2.075,10.703,2.823,-8.866,9.745,-0.005,4.646,10.787,-11.307,0.000,0.000,0.000,0.000,0,0.008,0.124,857,1017,1247,934,0.366,10.986
836,0.000,3.659,27.060,0.829,2.381,11.170,3.616,-8.844,9.723,-0.005,4.818,10.454,-10.422,0.000,0.000,0.000,0.000,0,0.008,0.123,857,1018,1246,935,0.732,10.895
837,0.000,3.812,27.236,0.851,3.154,10.656,5.112,-8.822,9.701,-0.016,4.720,10.572,-9.354,0.000,0.000,0.000,0.000,0,0.008,0.122,858,1017,1246,934,1.282,10.346
838,0.000,3.988,27.411,0.851,4.103,10.203,7.462,-8.800,9.679,0.000,4.612,10.658,-8.103,0.000,0.000,0.000,0.000,0,0.008,0.120,858,1017,1247,934,2.014,10.620
839,0.000,4.164,27.565,0.873,4.306,10.399,9.171,-8.778,9.679,0.000,4.957,10.373,-6.668,0.000,0.000,0.000,0.000,0,0.009,0.119,858,1017,1247,933,2.380,11.170
840,0.000,4.318,27.741,0.884,3.267,10.440,10.544,-8.756,9.657,0.000,5.185,10.203,-5.020,0.000,0.000,0.000,0.000,0,0.009,0.117,860,1017,1247,935,3.113,10.620
841,0.000,4.472,27.895,0.884,2.264,10.158,11.765,-8.734,9.635,-0.005,5.156,10.256,-3.067,0.000,0.000,0.000,0.000,0,0.009,0.116,859,1021,1246,935,4.028,10.163
842,0.000,4.603,28.070,0.895,1.534,10.091,12.345,-8.712,9.635,-0.016,5.125,10.287,-1.022,0.000,0.000,0.000,0.000,0,0.010,0.115,859,1017,1247,934,4.303,10.346
843,0.000,4.757,28.224,0.906,2.853,9.415,12.467,-8.668,9.635,0.000,5.144,10.215,0.381,0.000,0.000,0.000,0.000,0,0.010,0.115,859,1017,1246,934,3.204,10.437
844,0.000,4.911,28.378,0.906,3.080,9.722,13.291,-8.646,9.613,0.005,4.941,10.311,1.511,0.000,0.000,0.000,0.000,0,0.011,0.116,860,1017,1247,935,2.197,10.071
845,0.000,5.043,28.554,0.950,2.034,9.461,13.748,-8.624,9.613,-0.027,4.725,10.476,2.884,0.000,0.000,0.000,0.000,0,0.011,0.115,860,1017,1247,935,1.465,10.071
846,0.000,5.197,28.708,0.939,2.853,9.614,13.779,-8.602,9.613,0.000,4.665,10.390,4.257,0.000,0.000,0.000,0.000,0,0.011,0.114,860,1017,1246,933,2.838,9.339
847,0.000,5.350,28.883,0.961,3.320,9.413,15.000,-8.580,9.613,0.005,4.414,10.213,5.600,0.000,0.000,0.000,0.000,0,0.012,0.112,860,1017,1246,934,3.021,9.705
848,0.000,5.526,29.059,0.961,2.781,8.944,15.579,-8.558,9.613,0.005,4.512,10.234,6.973,0.000,0.000,0.000,0.000,0,0.012,0.111,861,1017,1247,935,2.014,9.430
849,0.000,5.680,29.235,0.972,2.795,9.303,16.373,-8.537,9.613,0.000,4.555,10.098,8.194,0.000,0.000,0.000,0.000,0,0.011,0.111,861,1017,1247,935,2.838,9.613
850,0.000,5.812,29.389,0.994,2.357,9.566,17.136,-8.515,9.613,0.005,4.335,9.897,9.354,0.000,0.000,0.000,0.000,0,0.012,0.112,861,1017,1246,933,3.296,9.339
851,0.000,5.966,29.565,0.983,1.332,8.984,16.526,-8.493,9.613,0.000,4.409,9.901,10.666,0.000,0.000,0.000,0.000,0,0.012,0.111,862,1019,1247,934,2.747,8.881
852,0.000,6.098,29.718,1.005,2.264,9.106,16.342,-8.471,9.613,0.005,4.308,9.873,11.398,0.000,0.000,0.000,0.000,0,0.012,0.111,862,1017,1247,935,2.747,9.247
853,0.000,6.251,29.894,1.016,2.858,9.660,16.861,-8.471,9.613,0.000,4.012,9.930,11.978,0.000,0.000,0.000,0.000,0,0.012,0.109,862,1017,1246,935,2.289,9.522
854,0.000,6.383,30.070,1.038,1.534,9.423,16.159,-8.449,9.635,0.000,4.012,10.069,12.497,0.000,0.000,0.000,0.000,0,0.013,0.108,863,1018,1247,935,1.282,8.972
855,0.000,6.537,30.246,1.027,2.249,9.619,15.335,-8.427,9.635,0.016,3.983,9.851,12.650,0.000,0.000,0.000,0.000,0,0.012,0.107,863,1017,1247,935,2.197,9.064
856,0.000,6.691,30.400,1.049,3.470,10.004,15.305,-8.427,9.635,0.000,3.676,9.660,12.741,0.000,0.000,0.000,0.000,0,0.012,0.106,864,1017,1247,935,2.838,9.613
857,0.000,6.867,30.575,1.071,3.344,9.748,15.305,-8.427,9.635,-0.005,3.456,9.822,12.772,0.000,0.000,0.000,0.000,0,0.012,0.105,862,1017,1246,935,1.465,9.339
858,0.000,7.020,30.751,1.082,3.533,9.954,15.457,-8.405,9.635,0.005,3.233,9.516,12.619,0.000,0.000,0.000,0.000,0,0.013,0.104,864,1015,1246,935,2.197,9.613
859,0.000,7.196,30.927,1.093,2.949,10.110,15.335,-8.405,9.635,0.000,3.260,9.432,12.680,0.000,0.000,0.000,0.000,0,0.013,0.103,865,1017,1247,935,3.388,9.979
860,0.000,7.350,31.103,1.071,2.376,9.935,15.183,-8.405,9.657,-0.016,3.099,9.482,12.650,0.000,0.000,0.000,0.000,0,0.013,0.103,864,1017,1247,935,3.296,9.705
861,0.000,7.504,31.279,1.104,3.954,10.399,16.037,-8.405,9.657,0.000,2.920,9.523,12.345,0.000,0.000,0.000,0.000,0,0.014,0.103,865,1017,1246,935,3.479,9.888
862,0.000,7.680,31.454,1.104,3.660,10.258,16.220,-8.427,9.657,0.000,3.095,9.401,12.284,0.000,0.000,0.000,0.000,0,0.014,0.103,866,1017,1246,935,2.930,10.071
863,0.000,7.833,31.630,1.137,2.281,10.038,15.671,-8.405,9.657,-0.016,3.099,9.152,12.222,0.000,0.000,0.000,0.000,0,0.015,0.104,866,1018,1246,935,2.289,9.888
864,0.000,7.987,31.806,1.126,3.607,10.498,16.251,-8.405,9.657,-0.005,2.793,9.253,12.039,0.000,0.000,0.000,0.000,0,0.015,0.105,866,1017,1246,935,3.937,10.346
865,0.000,8.163,31.982,1.148,4.277,10.397,16.617,-8.427,9.657,0.005,2.800,9.518,12.070,0.000,0.000,0.000,0.000,0,0.016,0.105,867,1018,1247,935,3.571,10.254
866,0.000,8.339,32.136,1.126,2.855,10.126,15.763,-8.427,9.657,0.005,2.927,9.353,11.795,0.000,0.000,0.000,0.000,0,0.017,0.104,867,1017,1246,935,2.197,9.979
867,0.000,8.493,32.311,1.159,3.066,10.428,14.878,-8.427,9.679,0.000,2.860,9.265,11.246,0.000,0.000,0.000,0.000,0,0.018,0.104,868,1018,1246,936,3.571,10.437
868,0.000,8.646,32.487,1.170,3.820,10.263,14.450,-8.427,9.679,0.000,2.656,9.509,10.788,0.000,0.000,0.000,0.000,0,0.019,0.104,868,1016,1246,935,4.211,10.346
869,0.000,8.822,32.663,1.170,3.650,10.105,14.420,-8.427,9.679,0.005,2.443,9.540,10.300,0.000,0.000,0.000,0.000,0,0.019,0.103,869,1017,1246,935,2.838,10.071
870,0.000,8.998,32.817,1.181,4.114,10.675,14.633,-8.449,9.679,0.000,2.427,9.399,9.873,0.000,0.000,0.000,0.000,0,0.019,0.103,868,1018,1247,935,3.021,10.346
871,0.000,9.174,32.992,1.192,3.832,10.466,14.664,-8.449,9.679,0.000,2.486,9.288,9.628,0.000,0.000,0.000,0.000,0,0.019,0.101,869,1017,1246,935,3.754,10.254
872,0.000,9.328,33.168,1.203,3.748,10.148,15.274,-8.471,9.679,0.005,2.300,9.382,9.293,0.000,0.000,0.000,0.000,0,0.018,0.100,868,1017,1245,935,3.571,10.071
873,0.000,9.503,33.344,1.214,4.926,10.572,16.129,-8.471,9.679,0.005,2.345,9.463,9.079,0.000,0.000,0.000,0.000,0,0.018,0.099,869,1016,1246,936,4.028,10.620
874,0.000,9.679,33.498,1.236,4.261,10.308,15.885,-8.471,9.679,-0.005,2.745,9.293,9.079,0.000,0.000,0.000,0.000,0,0.018,0.097,869,1017,1247,936,3.754,10.437
875,0.000,9.855,33.674,1.258,2.972,9.918,15.000,-8.493,9.679,0.000,2.757,9.200,8.865,0.000,0.000,0.000,0.000,0,0.017,0.097,870,1018,1246,936,3.662,10.071
876,0.000,10.009,33.827,1.247,3.755,10.246,15.061,-8.493,9.679,-0.005,2.565,9.403,8.652,0.000,0.000,0.000,0.000,0,0.017,0.097,870,1018,1246,936,4.852,10.529
877,0.000,10.184,34.003,1.258,3.877,10.270,14.298,-8.493,9.679,0.005,2.630,9.604,8.560,0.000,0.000,0.000,0.000,0,0.016,0.095,870,1017,1247,936,4.211,10.254
878,0.000,10.338,34.157,1.269,3.279,10.059,12.833,-8.493,9.701,0.005,2.630,9.466,8.133,0.000,0.000,0.000,0.000,0,0.016,0.095,871,1018,1247,935,2.930,9.888
879,0.000,10.514,34.333,1.280,4.313,10.071,12.192,-8.493,9.701,0.000,2.513,9.449,7.492,0.000,0.000,0.000,0.000,0,0.016,0.094,872,1018,1245,936,3.754,10.163
880,0.000,10.690,34.487,1.280,4.387,10.043,12.528,-8.515,9.701,0.000,2.302,9.679,6.973,0.000,0.000,0.000,0.000,0,0.015,0.094,872,1015,1245,936,3.845,10.254
881,0.000,10.866,34.662,1.302,4.924,10.320,12.680,-8.515,9.701,-0.005,2.091,9.693,6.516,0.000,0.000,0.000,0.000,0,0.015,0.093,873,1017,1246,935,3.204,9.979
882,0.000,11.041,34.816,1.302,4.265,10.086,12.741,-8.537,9.701,-0.005,2.187,9.509,6.332,0.000,0.000,0.000,0.000,0,0.015,0.093,872,1017,1245,935,4.303,10.071
883,0.000,11.195,34.992,1.324,3.480,9.703,12.161,-8.537,9.701,0.005,2.510,9.367,6.394,0.000,0.000,0.000,0.000,0,0.014,0.093,873,1018,1246,936,4.303,9.979
884,0.000,11.371,35.146,1.324,4.055,9.719,11.826,-8.558,9.701,0.000,2.637,9.375,6.394,0.000,0.000,0.000,0.000,0,0.014,0.094,874,1018,1245,936,4.852,10.254
885,0.000,11.547,35.300,1.313,3.842,9.837,11.887,-8.558,9.701,0.005,2.515,9.547,6.363,0.000,0.000,0.000,0.000,0,0.013,0.094,873,1017,1246,934,4.211,10.071
886,0.000,11.701,35.453,1.346,2.872,9.861,11.093,-8.558,9.701,-0.005,2.589,9.636,6.363,0.000,0.000,0.000,0.000,0,0.013,0.095,874,1017,1245,935,3.479,9.613
887,0.000,11.854,35.629,1.368,2.795,9.772,9.812,-8.558,9.701,0.000,2.573,9.497,6.119,0.000,0.000,0.000,0.000,0,0.012,0.094,874,1018,1245,937,4.028,9.705
888,0.000,12.008,35.783,1.368,4.399,9.906,10.056,-8.580,9.701,-0.016,2.328,9.480,5.478,0.000,0.000,0.000,0.000,0,0.011,0.095,874,1018,1245,936,3.754,9.796
889,0.000,12.184,35.937,1.379,4.797,10.105,10.575,-8.580,9.701,-0.005,2.163,9.679,5.142,0.000,0.000,0.000,0.000,0,0.011,0.094,874,1017,1245,935,2.838,9.796
890,0.000,12.338,36.091,1.368,3.387,9.695,9.659,-8.602,9.701,-0.005,2.422,9.619,5.173,0.000,0.000,0.000,0.000,0,0.011,0.094,875,1019,1245,936,2.747,9.705
891,0.000,12.514,36.244,1.390,3.657,9.616,8.316,-8.602,9.701,0.000,2.577,9.312,5.051,0.000,0.000,0.000,0.000,0,0.011,0.094,874,1018,1244,936,4.395,9.888
892,0.000,12.667,36.398,1.412,3.813,9.875,7.218,-8.602,9.701,-0.005,2.570,9.420,4.990,0.000,0.000,0.000,0.000,0,0.011,0.093,875,1017,1245,936,4.761,10.071
893,0.000,12.821,36.552,1.412,3.181,9.406,6.088,-8.602,9.701,-0.005,2.577,9.636,4.685,0.000,0.000,0.000,0.000,0,0.011,0.092,876,1018,1245,936,3.388,9.613
894,0.000,12.997,36.706,1.445,3.655,9.504,5.447,-8.602,9.701,-0.016,2.360,9.614,4.257,0.000,0.000,0.000,0.000,0,0.011,0.092,877,1018,1245,935,3.571,9.613
895,0.000,13.151,36.860,1.423,4.098,10.114,5.386,-8.624,9.701,0.005,2.113,9.547,3.799,0.000,0.000,0.000,0.000,0,0.011,0.091,876,1018,1245,935,3.754,9.796
896,0.000,13.327,37.014,1.434,4.158,9.978,5.478,-8.624,9.701,0.005,2.067,9.506,3.464,0.000,0.000,0.000,0.000,0,0.011,0.089,875,1017,1245,935,3.113,9.339
897,0.000,13.480,37.167,1.456,4.505,9.600,5.692,-8.646,9.701,0.000,2.134,9.461,3.311,0.000,0.000,0.000,0.000,0,0.012,0.088,876,1014,1245,935,3.571,9.430
898,0.000,13.656,37.299,1.467,4.941,9.571,5.997,-8.646,9.701,0.005,2.185,9.334,3.159,0.000,0.000,0.000,0.000,0,0.011,0.087,877,1018,1244,935,4.028,10.071
899,0.000,13.832,37.453,1.478,4.103,9.525,5.417,-8.668,9.701,0.000,2.381,9.288,3.220,0.000,0.000,0.000,0.000,0,0.011,0.086,877,1018,1245,935,4.120,9.888
900,0.000,13.986,37.607,1.500,3.219,9.566,4.471,-8.668,9.701,0.000,2.546,9.336,3.189,0.000,0.000,0.000,0.000,0,0.012,0.085,878,1017,1244,935,4.486,9.522
901,0.000,14.140,37.739,1.467,3.511,9.794,4.044,-8.668,9.701,-0.016,2.448,9.480,2.914,0.000,0.000,0.000,0.000,0,0.012,0.084,878,1018,1244,936,4.852,9.522
902,0.000,14.293,37.892,1.500,3.492,9.743,3.586,-8.668,9.701,-0.005,2.530,9.497,2.792,0.000,0.000,0.000,0.000,0,0.011,0.083,878,1018,1244,935,4.028,9.522
903,0.000,14.447,38.024,1.489,3.044,9.442,2.121,-8.668,9.701,0.005,2.467,9.391,2.701,0.000,0.000,0.000,0.000,0,0.011,0.083,879,1018,1244,935,3.204,9.522
904,0.000,14.579,38.156,1.511,3.564,9.346,0.870,-8.668,9.701,-0.005,2.261,9.425,2.365,0.000,0.000,0.000,0.000,0,0.011,0.083,879,1018,1244,935,3.479,9.705
905,0.000,14.755,38.310,1.511,4.328,9.444,0.000,-8.690,9.701,-0.005,2.204,9.557,1.938,0.000,0.000,0.000,0.000,0,0.011,0.083,879,1018,1244,935,3.479,9.705
906,0.000,14.909,38.442,1.522,3.758,9.451,-0.870,-8.690,9.701,0.000,2.158,9.540,1.389,0.000,0.000,0.000,0.000,0,0.010,0.083,880,1018,1244,934,3.021,9.430
907,0.000,15.062,38.574,1.533,3.834,9.559,-1.602,-8.712,9.679,0.000,2.000,9.499,0.717,0.000,0.000,0.000,0.000,0,0.010,0.084,880,1018,1244,935,3.479,9.339
908,0.000,15.216,38.705,1.555,4.802,9.746,-1.511,-8.712,9.679,-0.005,1.838,9.509,0.259,0.000,0.000,0.000,0.000,0,0.009,0.088,881,1018,1243,935,4.303,9.430
909,0.000,15.392,38.837,1.577,4.785,9.798,-1.175,-8.734,9.679,0.000,1.885,9.367,-0.015,0.000,0.000,0.000,0.000,0,0.009,0.092,880,1018,1244,935,3.754,9.430
910,0.000,15.546,38.969,1.566,4.203,9.535,-1.541,-8.734,9.679,0.016,2.130,9.257,-0.107,0.000,0.000,0.000,0.000,0,0.009,0.093,880,1018,1243,935,3.754,9.522
911,0.000,15.700,39.101,1.566,3.877,9.303,-2.090,-8.734,9.679,0.000,2.261,9.248,-0.290,0.000,0.000,0.000,0.000,0,0.009,0.092,879,1018,1242,935,4.761,9.705
912,0.000,15.854,39.233,1.555,4.268,9.437,-2.365,-8.756,9.679,0.000,2.235,9.379,-0.748,0.000,0.000,0.000,0.000,0,0.008,0.091,880,1017,1243,934,4.761,9.796
913,0.000,16.007,39.365,1.577,3.387,9.449,-3.403,-8.756,9.679,0.005,2.213,9.504,-0.992,0.000,0.000,0.000,0.000,0,0.009,0.089,881,1018,1243,935,4.120,9.522
914,0.000,16.161,39.496,1.599,4.100,9.645,-4.288,-8.756,9.679,-0.016,2.130,9.432,-1.450,0.000,0.000,0.000,0.000,0,0.009,0.088,881,1019,1242,934,3.845,9.247
915,0.000,16.315,39.628,1.588,4.553,9.530,-4.593,-8.778,9.679,-0.005,2.017,9.446,-2.029,0.000,0.000,0.000,0.000,0,0.010,0.087,881,1018,1242,935,4.211,9.430
916,0.000,16.469,39.738,1.599,4.680,9.492,-4.929,-8.778,9.679,0.000,1.907,9.451,-2.457,0.000,0.000,0.000,0.000,0,0.011,0.086,881,1018,1243,935,3.388,9.430
917,0.000,16.623,39.870,1.610,4.409,9.482,-5.478,-8.778,9.679,-0.005,1.917,9.399,-2.823,0.000,0.000,0.000,0.000,0,0.011,0.086,881,1018,1243,934,4.028,9.613
918,0.000,16.776,39.980,1.621,3.885,9.190,-6.821,-8.800,9.657,0.000,2.168,9.298,-2.762,0.000,0.000,0.000,0.000,0,0.011,0.085,886,1018,1241,935,4.486,9.522
919,0.000,16.930,40.112,1.621,4.217,9.490,-7.675,-8.800,9.657,0.005,2.292,9.329,-3.220,0.000,0.000,0.000,0.000,0,0.011,0.083,882,1021,1240,935,4.669,9.430
920,0.000,17.084,40.222,1.631,4.074,9.463,-8.530,-8.800,9.657,0.005,2.137,9.576,-3.769,0.000,0.000,0.000,0.000,0,0.011,0.082,882,1018,1242,934,4.395,9.430
921,0.000,17.238,40.353,1.642,3.238,9.406,-9.964,-8.800,9.657,0.000,2.125,9.499,-4.044,0.000,0.000,0.000,0.000,0,0.011,0.081,882,1018,1242,934,3.845,9.155
922,0.000,17.370,40.463,1.653,3.889,9.585,-10.910,-8.822,9.657,-0.005,2.027,9.339,-4.532,0.000,0.000,0.000,0.000,0,0.010,0.080,882,1019,1242,934,4.211,9.430
923,0.000,17.523,40.573,1.653,5.039,9.554,-11.185,-8.822,9.657,-0.016,1.847,9.423,-5.203,0.000,0.000,0.000,0.000,0,0.011,0.079,882,1019,1241,934,4.028,9.430
924,0.000,17.677,40.683,1.664,5.099,9.638,-11.032,-8.822,9.657,0.016,1.783,9.439,-5.600,0.000,0.000,0.000,0.000,0,0.011,0.078,883,1018,1241,933,3.204,9.339
925,0.000,17.853,40.815,1.675,5.233,9.808,-10.666,-8.844,9.635,0.000,1.684,9.332,-5.966,0.000,0.000,0.000,0.000,0,0.012,0.077,882,1019,1241,933,3.845,9.522
926,0.000,18.007,40.925,1.686,5.034,9.660,-10.666,-8.844,9.635,-0.005,1.754,9.231,-6.302,0.000,0.000,0.000,0.000,0,0.012,0.076,883,1018,1241,935,5.035,9.522
927,0.000,18.161,41.035,1.675,4.622,9.549,-10.727,-8.866,9.635,0.000,1.914,9.221,-6.546,0.000,0.000,0.000,0.000,0,0.012,0.075,883,1018,1241,934,5.035,9.613
928,0.000,18.314,41.144,1.664,4.612,9.621,-10.819,-8.866,9.635,0.005,1.933,9.281,-6.821,0.000,0.000,0.000,0.000,0,0.013,0.074,883,1018,1241,932,5.219,9.796
929,0.000,18.468,41.254,1.697,4.052,9.535,-11.490,-8.888,9.613,0.000,2.077,9.367,-6.912,0.000,0.000,0.000,0.000,0,0.013,0.073,883,1019,1240,932,4.944,9.613
930,0.000,18.600,41.386,1.697,3.901,9.636,-12.314,-8.888,9.613,-0.005,2.273,9.351,-7.187,0.000,0.000,0.000,0.000,0,0.013,0.074,883,1019,1240,933,4.578,9.522
931,0.000,18.754,41.496,1.697,4.864,9.825,-12.497,-8.888,9.613,0.016,2.099,9.341,-7.553,0.000,0.000,0.000,0.000,0,0.013,0.074,883,1019,1240,933,4.578,9.613
932,0.000,18.908,41.606,1.730,5.142,9.794,-12.589,-8.888,9.591,-0.005,1.833,9.504,-7.980,0.000,0.000,0.000,0.000,0,0.013,0.074,884,1019,1240,933,4.028,9.522
933,0.000,19.062,41.694,1.730,4.986,9.853,-12.528,-8.910,9.591,0.000,1.720,9.530,-8.591,0.000,0.000,0.000,0.000,0,0.013,0.074,885,1018,1240,933,3.845,9.613
934,0.000,19.215,41.804,1.730,5.132,10.055,-12.619,-8.932,9.591,0.005,1.773,9.370,-9.049,0.000,0.000,0.000,0.000,0,0.013,0.074,884,1019,1239,933,4.852,9.796
935,0.000,19.369,41.913,1.730,4.450,9.703,-13.718,-8.932,9.569,0.005,2.041,9.336,-9.049,0.000,0.000,0.000,0.000,0,0.013,0.074,885,1018,1239,933,5.127,9.705
936,0.000,19.501,42.023,1.752,4.076,9.552,-14.786,-8.932,9.569,0.000,2.166,9.391,-9.476,0.000,0.000,0.000,0.000,0,0.013,0.073,885,1016,1239,932,4.944,9.796
937,0.000,19.633,42.133,1.741,4.289,9.942,-15.335,-8.954,9.547,0.005,2.065,9.485,-10.178,0.000,0.000,0.000,0.000,0,0.013,0.074,884,1018,1239,932,5.127,9.979
938,0.000,19.765,42.221,1.719,3.964,9.940,-15.915,-8.954,9.547,0.000,2.070,9.614,-10.697,0.000,0.000,0.000,0.000,0,0.012,0.072,885,1019,1239,932,4.395,9.613
939,0.000,19.919,42.331,1.752,3.741,9.830,-16.709,-8.976,9.525,0.005,2.015,9.581,-11.368,0.000,0.000,0.000,0.000,0,0.012,0.071,885,1019,1238,932,4.028,9.522
940,0.000,20.050,42.441,1.763,4.483,9.937,-16.892,-8.976,9.503,-0.005,1.759,9.552,-12.131,0.000,0.000,0.000,0.000,0,0.012,0.070,885,1018,1239,932,4.211,9.888
941,0.000,20.204,42.529,1.752,5.407,10.170,-16.312,-8.998,9.481,-0.016,1.653,9.593,-12.711,0.000,0.000,0.000,0.000,0,0.012,0.070,886,1019,1238,932,3.937,9.888
942,0.000,20.358,42.639,1.774,5.659,10.217,-16.007,-9.020,9.459,-0.005,1.905,9.449,-13.291,0.000,0.000,0.000,0.000,0,0.012,0.071,886,1019,1238,931,3.662,9.796
943,0.000,20.512,42.748,1.785,5.273,10.026,-15.976,-9.042,9.437,0.000,2.063,9.394,-13.779,0.000,0.000,0.000,0.000,0,0.012,0.072,886,1019,1238,931,4.395,9.888
944,0.000,20.666,42.858,1.785,5.441,10.213,-15.549,-9.064,9.415,0.000,2.082,9.554,-14.511,0.000,0.000,0.000,0.000,0,0.012,0.073,886,1019,1238,931,5.402,10.163
945,0.000,20.797,42.946,1.763,5.429,10.241,-15.640,-9.086,9.393,0.016,2.168,9.628,-15.183,0.000,0.000,0.000,0.000,0,0.011,0.074,886,1019,1238,931,5.585,10.163
946,0.000,20.951,43.056,1.774,4.651,10.007,-16.159,-9.086,9.371,0.005,2.223,9.564,-15.793,0.000,0.000,0.000,0.000,0,0.011,0.074,886,1018,1237,931,5.219,9.979
947,0.000,21.083,43.144,1.785,4.605,10.141,-16.770,-9.108,9.350,-0.005,2.230,9.597,-16.678,0.000,0.000,0.000,0.000,0,0.011,0.073,887,1019,1238,931,5.402,10.163
948,0.000,21.215,43.254,1.774,4.134,10.095,-17.472,-9.130,9.306,0.016,2.254,9.645,-17.563,0.000,0.000,0.000,0.000,0,0.012,0.073,886,1019,1238,931,5.402,10.163
949,0.000,21.347,43.342,1.807,4.342,10.050,-17.868,-9.152,9.284,0.005,2.257,9.707,-18.479,0.000,0.000,0.000,0.000,0,0.012,0.072,886,1019,1237,931,4.578,9.979
950,0.000,21.479,43.452,1.785,4.457,10.014,-18.235,-9.174,9.240,0.000,2.283,9.705,-19.364,0.000,0.000,0.000,0.000,0,0.012,0.072,886,1019,1237,930,4.578,10.071
951,0.000,21.632,43.539,1.818,4.632,10.038,-18.692,-9.196,9.218,-0.005,2.333,9.638,-20.066,0.000,0.000,0.000,0.000,0,0.012,0.071,886,1017,1237,930,4.120,10.071
952,0.000,21.764,43.627,1.818,4.873,10.134,-19.181,-9.218,9.174,-0.005,2.412,9.662,-20.706,0.000,0.000,0.000,0.000,0,0.011,0.071,889,1019,1236,930,4.303,9.979
953,0.000,21.896,43.715,1.829,4.840,10.119,-19.516,-9.218,9.130,0.005,2.587,9.624,-21.622,0.000,0.000,0.000,0.000,0,0.011,0.071,886,1020,1235,930,4.395,9.979
954,0.000,22.028,43.825,1.840,4.426,9.921,-20.005,-9.240,9.086,0.016,2.774,9.535,-22.232,0.000,0.000,0.000,0.000,0,0.011,0.072,886,1019,1236,929,4.578,9.979
955,0.000,22.160,43.913,1.840,4.356,9.894,-20.798,-9.262,9.064,0.000,2.884,9.487,-22.782,0.000,0.000,0.000,0.000,0,0.011,0.071,887,1019,1237,929,4.852,10.071
956,0.000,22.292,44.001,1.851,4.756,10.023,-20.920,-9.262,9.020,-0.005,2.855,9.506,-23.301,0.000,0.000,0.000,0.000,0,0.011,0.070,888,1019,1237,928,4.761,10.071
957,0.000,22.445,44.089,1.851,4.627,9.968,-21.256,-9.284,8.976,-0.016,2.759,9.468,-23.850,0.000,0.000,0.000,0.000,0,0.010,0.069,890,1019,1235,929,4.395,9.888
958,0.000,22.577,44.177,1.840,4.342,9.916,-21.378,-9.284,8.932,0.005,2.896,9.322,-23.972,0.000,0.000,0.000,0.000,0,0.010,0.068,887,1023,1235,929,4.303,9.888
959,0.000,22.709,44.287,1.862,4.270,9.791,-21.805,-9.284,8.888,-0.016,3.178,9.243,-23.789,0.000,0.000,0.000,0.000,0,0.010,0.067,887,1019,1236,928,4.669,9.979
960,0.000,22.841,44.374,1.873,4.531,9.652,-22.446,-9.284,8.844,-0.005,3.391,9.233,-23.545,0.000,0.000,0.000,0.000,0,0.010,0.067,887,1019,1236,928,4.578,9.888
961,0.000,22.973,44.462,1.862,4.454,9.861,-22.782,-9.284,8.822,0.000,3.480,9.281,-23.178,0.000,0.000,0.000,0.000,0,0.009,0.066,887,1019,1235,928,4.303,9.888
962,0.000,23.105,44.550,1.884,3.968,9.932,-22.904,-9.284,8.778,-0.005,3.356,9.274,-22.873,0.000,0.000,0.000,0.000,0,0.009,0.066,887,1019,1236,928,4.211,9.705
963,0.000,23.214,44.638,1.873,3.655,9.758,-23.270,-9.262,8.756,0.016,3.370,9.171,-22.324,0.000,0.000,0.000,0.000,0,0.008,0.065,887,1018,1235,927,4.486,9.613
964,0.000,23.346,44.726,1.884,4.316,9.858,-23.148,-9.262,8.734,0.000,3.238,9.102,-21.836,0.000,0.000,0.000,0.000,0,0.008,0.064,887,1019,1234,927,4.395,9.796
965,0.000,23.478,44.814,1.873,5.087,9.956,-22.293,-9.262,8.690,0.000,3.001,9.154,-20.890,0.000,0.000,0.000,0.000,0,0.008,0.063,888,1019,1235,928,3.937,9.888
966,0.000,23.610,44.902,1.895,4.347,9.758,-22.019,-9.262,8.668,-0.038,3.104,9.169,-20.096,0.000,0.000,0.000,0.000,0,0.007,0.063,887,1019,1235,927,3.571,9.705
967,0.000,23.742,44.990,1.884,4.062,9.842,-22.110,-9.240,8.646,-0.005,3.236,9.047,-19.547,0.000,0.000,0.000,0.000,0,0.007,0.063,888,1019,1235,926,4.303,9.796
968,0.000,23.874,45.078,1.884,4.505,10.177,-21.958,-9.240,8.624,-0.005,3.327,9.128,-18.845,0.000,0.000,0.000,0.000,0,0.007,0.062,888,1020,1234,927,5.035,9.888
969,0.000,23.984,45.165,1.917,4.024,10.081,-21.836,-9.240,8.602,0.000,3.274,9.365,-17.960,0.000,0.000,0.000,0.000,0,0.006,0.062,888,1019,1233,927,4.303,9.705
970,0.000,24.115,45.253,1.906,3.791,10.124,-21.927,-9.218,8.580,-0.016,3.233,9.370,-17.563,0.000,0.000,0.000,0.000,0,0.006,0.061,887,1019,1233,927,4.028,9.796
971,0.000,24.225,45.363,1.917,4.275,10.373,-21.775,-9.218,8.558,0.000,3.202,9.341,-17.197,0.000,0.000,0.000,0.000,0,0.007,0.061,888,1019,1234,926,4.486,10.163
972,0.000,24.357,45.451,1.928,4.191,10.375,-21.653,-9.218,8.537,0.005,3.150,9.389,-16.526,0.000,0.000,0.000,0.000,0,0.007,0.061,888,1019,1234,926,3.937,10.071
973,0.000,24.489,45.539,1.928,4.251,10.584,-21.378,-9.196,8.515,0.005,3.102,9.391,-16.007,0.000,0.000,0.000,0.000,0,0.007,0.061,887,1019,1233,926,3.754,10.071
974,0.000,24.599,45.627,1.928,4.854,10.605,-20.798,-9.196,8.493,0.016,3.104,9.363,-15.579,0.000,0.000,0.000,0.000,0,0.008,0.061,889,1019,1233,926,4.211,10.346
975,0.000,24.731,45.715,1.928,4.799,10.658,-20.371,-9.196,8.471,0.000,3.231,9.291,-15.122,0.000,0.000,0.000,0.000,0,0.009,0.060,888,1017,1233,926,4.120,10.346
976,0.000,24.840,45.781,1.950,3.971,10.818,-20.920,-9.174,8.471,0.000,3.449,9.241,-14.603,0.000,0.000,0.000,0.000,0,0.009,0.058,888,1019,1234,925,4.211,10.529
977,0.000,24.950,45.869,1.950,3.581,10.536,-21.744,-9.174,8.449,0.000,3.509,9.300,-14.145,0.000,0.000,0.000,0.000,0,0.009,0.058,889,1019,1234,925,4.852,10.529
978,0.000,25.060,45.957,1.950,3.856,10.557,-21.988,-9.152,8.427,-0.005,3.375,9.439,-13.901,0.000,0.000,0.000,0.000,0,0.009,0.057,888,1020,1234,925,4.761,10.620
979,0.000,25.170,46.044,1.950,3.973,10.948,-22.232,-9.152,8.405,0.000,3.324,9.542,-13.870,0.000,0.000,0.000,0.000,0,0.010,0.057,890,1020,1234,925,3.937,10.803
980,0.000,25.280,46.110,1.972,3.705,10.929,-22.507,-9.130,8.383,0.000,3.253,9.504,-13.748,0.000,0.000,0.000,0.000,0,0.011,0.056,889,1020,1233,925,3.571,10.529
981,0.000,25.368,46.198,1.961,4.086,10.881,-22.416,-9.130,8.383,0.005,3.056,9.420,-13.687,0.000,0.000,0.000,0.000,0,0.012,0.055,890,1020,1233,924,3.845,10.529
982,0.000,25.500,46.286,1.961,4.850,10.964,-22.019,-9.130,8.361,0.027,2.922,9.399,-13.626,0.000,0.000,0.000,0.000,0,0.013,0.055,889,1019,1234,924,3.937,10.895
983,0.000,25.610,46.374,1.972,4.986,10.945,-21.408,-9.130,8.339,-0.005,3.030,9.353,-13.596,0.000,0.000,0.000,0.000,0,0.014,0.054,890,1019,1234,924,3.662,10.895
984,0.000,25.741,46.440,1.994,5.228,11.019,-20.340,-9.130,8.317,0.016,3.154,9.332,-13.504,0.000,0.000,0.000,0.000,0,0.014,0.054,891,1020,1234,924,4.028,10.803
985,0.000,25.851,46.528,1.972,4.598,11.010,-19.608,-9.108,8.317,-0.005,3.310,9.241,-13.016,0.000,0.000,0.000,0.000,0,0.015,0.053,891,1019,1233,924,4.761,10.895
986,0.000,25.983,46.616,2.005,4.385,10.830,-19.211,-9.108,8.295,-0.016,3.322,9.171,-12.558,0.000,0.000,0.000,0.000,0,0.015,0.053,892,1020,1234,923,4.944,10.895
987,0.000,26.093,46.704,1.983,5.259,10.871,-18.265,-9.108,8.273,0.000,3.214,9.248,-12.253,0.000,0.000,0.000,0.000,0,0.015,0.053,890,1019,1234,923,5.219,10.986
988,0.000,26.225,46.791,1.994,5.211,11.063,-16.739,-9.086,8.251,-0.005,3.322,9.305,-11.765,0.000,0.000,0.000,0.000,0,0.015,0.053,891,1020,1233,923,4.578,10.986
989,0.000,26.335,46.879,2.005,4.378,10.974,-16.251,-9.086,8.251,-0.005,3.504,9.217,-11.398,0.000,0.000,0.000,0.000,0,0.015,0.053,891,1019,1233,923,4.303,10.803
990,0.000,26.444,46.967,2.016,4.610,10.871,-16.068,-9.064,8.229,-0.005,3.485,9.171,-10.880,0.000,0.000,0.000,0.000,0,0.015,0.053,891,1018,1234,923,5.219,10.803
991,0.000,26.554,47.055,1.983,4.984,11.005,-15.335,-9.064,8.207,0.000,3.432,9.332,-10.422,0.000,0.000,0.000,0.000,0,0.014,0.053,891,1020,1234,922,5.127,10.986
992,0.000,26.664,47.121,2.027,4.510,10.823,-14.847,-9.042,8.207,-0.005,3.451,9.394,-9.995,0.000,0.000,0.000,0.000,0,0.014,0.053,892,1021,1233,922,4.303,10.895
993,0.000,26.774,47.209,2.016,4.172,10.759,-14.817,-9.042,8.185,0.000,3.430,9.284,-9.506,0.000,0.000,0.000,0.000,0,0.014,0.053,892,1020,1232,922,4.578,10.803
994,0.000,26.884,47.297,2.038,4.454,10.912,-14.572,-9.020,8.185,-0.005,3.411,9.327,-9.018,0.000,0.000,0.000,0.000,0,0.013,0.052,892,1020,1234,922,4.944,10.986
995,0.000,26.994,47.385,2.038,4.150,10.715,-14.328,-9.020,8.163,0.005,3.447,9.425,-8.591,0.000,0.000,0.000,0.000,0,0.013,0.052,892,1020,1233,921,4.486,10.803
996,0.000,27.082,47.451,2.038,4.007,10.691,-14.328,-8.998,8.163,0.005,3.535,9.399,-8.103,0.000,0.000,0.000,0.000,0,0.012,0.052,895,1020,1232,922,4.120,10.712
997,0.000,27.192,47.539,2.038,4.598,10.770,-13.993,-8.998,8.141,0.000,3.537,9.384,-7.706,0.000,0.000,0.000,0.000,0,0.013,0.051,892,1023,1232,921,4.395,10.895
998,0.000,27.279,47.604,2.038,4.562,10.778,-13.748,-8.976,8.141,0.000,3.482,9.391,-7.431,0.000,0.000,0.000,0.000,0,0.012,0.051,893,1020,1232,920,4.120,10.712
999,0.000,27.389,47.692,2.038,4.361,10.835,-13.535,-8.976,8.119,0.000,3.418,9.372,-7.004,0.000,0.000,0.000,0.000,0,0.012,0.052,893,1020,1232,920,3.937,10.620
1000,0.000,27.477,47.758,2.060,4.155,10.579,-13.535,-8.954,8.119,0.000,3.490,9.360,-6.455,0.000,0.000,0.000,0.000,0,0.012,0.056,893,1020,1231,921,4.578,10.712
1001,0.000,27.587,47.846,2.027,4.014,10.383,-13.657,-8.954,8.119,0.000,3.616,9.317,-5.997,0.000,0.000,0.000,0.000,0,0.012,0.059,893,1020,1232,921,4.486,10.712
1002,0.000,27.675,47.912,2.049,4.366,10.493,-13.443,-8.932,8.097,0.000,3.573,9.389,-5.631,0.000,0.000,0.000,0.000,0,0.011,0.060,893,1020,1232,919,4.303,10.803
1003,0.000,27.785,48.000,2.060,4.593,10.648,-12.802,-8.910,8.097,0.000,3.425,9.494,-5.417,0.000,0.000,0.000,0.000,0,0.011,0.060,892,1020,1231,920,4.120,10.529
1004,0.000,27.895,48.066,2.049,4.474,10.639,-12.192,-8.910,8.097,0.005,3.334,9.401,-4.929,0.000,0.000,0.000,0.000,0,0.011,0.059,893,1021,1231,921,3.937,10.346
1005,0.000,27.983,48.154,2.049,4.713,10.543,-11.490,-8.888,8.097,0.000,3.320,9.255,-4.501,0.000,0.000,0.000,0.000,0,0.011,0.058,893,1021,1231,919,4.303,10.437
1006,0.000,28.092,48.220,2.060,5.012,10.435,-10.483,-8.888,8.075,-0.005,3.468,9.281,-4.044,0.000,0.000,0.000,0.000,0,0.011,0.056,894,1020,1231,919,4.578,10.620
1007,0.000,28.202,48.308,2.071,4.572,10.287,-10.117,-8.866,8.075,-0.005,3.676,9.348,-3.494,0.000,0.000,0.000,0.000,0,0.010,0.056,893,1021,1231,919,4.395,10.620
1008,0.000,28.290,48.396,2.071,4.335,10.294,-9.842,-8.844,8.075,0.027,3.746,9.355,-2.884,0.000,0.000,0.000,0.000,0,0.010,0.055,894,1020,1231,920,4.669,10.529
1009,0.000,28.400,48.461,2.071,4.182,10.313,-9.445,-8.844,8.075,-0.005,3.710,9.425,-2.274,0.000,0.000,0.000,0.000,0,0.009,0.055,894,1020,1231,920,4.944,10.346
1010,0.000,28.488,48.549,2.104,3.729,10.304,-9.201,-8.822,8.075,-0.005,3.748,9.418,-1.785,0.000,0.000,0.000,0.000,0,0.010,0.057,894,1021,1231,919,4.486,10.254
1011,0.000,28.576,48.615,2.104,3.913,10.313,-8.713,-8.800,8.075,-0.016,3.710,9.382,-1.419,0.000,0.000,0.000,0.000,0,0.009,0.057,894,1021,1231,919,4.303,10.254
1012,0.000,28.686,48.703,2.093,4.823,10.244,-7.645,-8.800,8.075,0.005,3.502,9.456,-0.961,0.000,0.000,0.000,0.000,0,0.009,0.058,894,1020,1231,919,4.120,10.254
1013,0.000,28.774,48.769,2.071,5.027,10.301,-6.882,-8.778,8.075,-0.016,3.533,9.514,-0.351,0.000,0.000,0.000,0.000,0,0.009,0.058,892,1021,1231,919,3.662,10.254
1014,0.000,28.883,48.857,2.082,4.275,10.265,-6.790,-8.756,8.075,0.016,3.703,9.454,0.107,0.000,0.000,0.000,0.000,0,0.009,0.057,894,1018,1231,919,3.845,10.254
1015,0.000,28.971,48.945,2.126,3.930,10.091,-6.210,-8.756,8.053,-0.005,3.724,9.437,0.534,0.000,0.000,0.000,0.000,0,0.008,0.057,894,1021,1231,919,4.761,10.163
1016,0.000,29.059,49.011,2.104,4.229,10.165,-5.539,-8.734,8.053,0.000,3.696,9.542,0.748,0.000,0.000,0.000,0.000,0,0.008,0.055,894,1021,1231,919,4.944,10.254
1017,0.000,29.147,49.099,2.104,4.088,10.201,-5.386,-8.712,8.053,0.005,3.782,9.602,1.236,0.000,0.000,0.000,0.000,0,0.008,0.055,895,1020,1232,919,4.211,10.254
1018,0.000,29.235,49.165,2.104,3.707,10.055,-5.417,-8.712,8.053,0.000,3.796,9.609,1.755,0.000,0.000,0.000,0.000,0,0.008,0.056,895,1021,1231,920,3.845,10.071
1019,0.000,29.323,49.252,2.104,3.715,9.985,-5.203,-8.690,8.053,-0.005,3.767,9.600,2.029,0.000,0.000,0.000,0.000,0,0.008,0.055,894,1022,1232,919,4.211,10.163
1020,0.000,29.411,49.318,2.126,3.645,9.997,-4.898,-8.690,8.053,0.005,3.813,9.593,2.335,0.000,0.000,0.000,0.000,0,0.008,0.054,894,1021,1231,919,4.028,10.163
1021,0.000,29.499,49.406,2.137,3.667,9.937,-4.685,-8.668,8.053,0.000,3.789,9.619,2.609,0.000,0.000,0.000,0.000,0,0.007,0.053,894,1021,1231,919,3.662,9.979
1022,0.000,29.587,49.472,2.137,3.892,9.988,-4.501,-8.668,8.053,-0.005,3.827,9.564,2.823,0.000,0.000,0.000,0.000,0,0.008,0.052,895,1021,1231,919,3.662,9.979
1023,0.000,29.653,49.560,2.126,3.935,9.894,-4.135,-8.646,8.053,0.000,3.775,9.561,3.098,0.000,0.000,0.000,0.000,0,0.008,0.052,896,1021,1231,920,3.571,9.979
1024,0.000,29.740,49.626,2.126,3.966,9.916,-3.647,-8.624,8.053,-0.005,3.636,9.616,3.464,0.000,0.000,0.000,0.000,0,0.008,0.052,895,1020,1231,919,3.662,9.888
1025,0.000,29.828,49.692,2.148,3.739,9.815,-3.342,-8.624,8.053,0.000,3.686,9.540,3.708,0.000,0.000,0.000,0.000,0,0.008,0.051,896,1021,1231,919,3.845,9.979
1026,0.000,29.894,49.758,2.159,3.209,9.461,-3.647,-8.602,8.053,0.000,3.913,9.470,4.105,0.000,0.000,0.000,0.000,0,0.008,0.051,895,1021,1231,919,3.845,9.888
1027,0.000,29.982,49.824,2.159,3.257,9.506,-4.044,-8.602,8.053,0.000,3.906,9.604,4.318,0.000,0.000,0.000,0.000,0,0.008,0.050,895,1021,1231,919,3.937,9.888
1028,0.000,30.048,49.912,2.170,3.322,9.628,-4.227,-8.580,8.053,0.000,3.880,9.693,4.501,0.000,0.000,0.000,0.000,0,0.008,0.050,895,1021,1230,919,3.662,9.796
1029,0.000,30.114,49.978,2.170,3.188,9.528,-4.349,-8.580,8.053,0.000,3.712,9.595,4.685,0.000,0.000,0.000,0.000,0,0.007,0.049,896,1020,1231,919,3.204,9.430
1030,0.000,30.180,50.043,2.170,3.600,9.473,-4.013,-8.558,8.053,0.016,3.554,9.559,4.623,0.000,0.000,0.000,0.000,0,0.007,0.048,898,1021,1231,919,3.204,9.430
1031,0.000,30.268,50.109,2.159,4.282,9.492,-3.159,-8.558,8.053,0.005,3.528,9.540,4.868,0.000,0.000,0.000,0.000,0,0.007,0.047,896,1023,1230,919,3.296,9.613
1032,0.000,30.356,50.175,2.170,4.301,9.348,-2.487,-8.558,8.053,0.000,3.499,9.420,5.051,0.000,0.000,0.000,0.000,0,0.007,0.046,896,1021,1230,919,3.113,9.522
1033,0.000,30.444,50.263,2.170,3.846,9.118,-2.274,-8.537,8.053,-0.005,3.593,9.377,5.447,0.000,0.000,0.000,0.000,0,0.007,0.046,896,1021,1231,919,3.571,9.430
1034,0.000,30.531,50.329,2.170,3.846,9.195,-1.938,-8.537,8.053,-0.005,3.698,9.463,5.814,0.000,0.000,0.000,0.000,0,0.007,0.045,896,1021,1231,918,4.211,9.430
1035,0.000,30.619,50.417,2.170,3.822,9.341,-1.053,-8.537,8.053,0.000,3.662,9.564,5.783,0.000,0.000,0.000,0.000,0,0.006,0.045,899,1022,1230,919,4.211,9.339
1036,0.000,30.707,50.483,2.181,3.365,9.253,-0.473,-8.515,8.053,0.000,3.698,9.509,5.966,0.000,0.000,0.000,0.000,0,0.006,0.043,896,1023,1229,919,3.845,9.064
1037,0.000,30.773,50.571,2.203,3.157,9.073,-0.137,-8.515,8.053,-0.005,3.731,9.379,6.455,0.000,0.000,0.000,0.000,0,0.006,0.043,896,1022,1230,919,3.845,9.155
1038,0.000,30.861,50.637,2.192,3.650,9.016,0.412,-8.493,8.053,0.000,3.645,9.384,6.821,0.000,0.000,0.000,0.000,0,0.006,0.042,897,1021,1230,918,3.754,9.339
