loopCnt,assist_level,thighDeg_RH,incPosDeg_RH,MotorActCurrent_RH,accX_Calib_RH,accY_Calib_RH,gyroZ_Calib_RH,thighDeg_LH,incPosDeg_LH,MotorActCurrent_LH,accX_Calib_LH,accY_Calib_LH,gyroZ_Calib_LH,u_RH,u_LH,Pvector_ref_RH,Pvector_ref_LH,extension_control_mode,emg_R1,emg_L1,fsr_R1,fsr_R2,fsr_L1,fsr_L2,free_var1,free_var2
284,0.000,-3.637,20.644,0.005,2.479,9.348,-0.351,-4.581,12.997,-0.038,2.688,9.758,-0.046,0.043,-0.043,0.000,0.000,6,-0.002,0.013,785,1031,1254,929,2.380,9.339
285,0.000,-3.637,20.644,0.016,2.575,9.396,-0.320,-4.581,12.997,-0.027,2.721,9.748,-0.137,0.044,-0.044,0.000,0.000,6,-0.002,0.014,787,1030,1254,928,2.380,9.339
286,0.000,-3.637,20.644,0.016,2.711,9.454,-0.229,-4.581,12.997,-0.038,2.680,9.743,-0.076,0.047,-0.047,0.000,0.000,6,-0.001,0.014,785,1030,1255,927,2.472,9.339
287,0.000,-3.615,20.644,0.027,2.704,9.466,0.000,-4.603,12.997,-0.027,2.642,9.712,-0.046,0.049,-0.049,0.000,0.000,6,-0.001,0.014,785,1031,1255,928,2.472,9.339
288,0.000,-3.615,20.644,0.027,2.625,9.449,0.046,-4.603,12.997,-0.038,2.649,9.669,-0.046,0.051,-0.051,0.000,0.000,6,-0.002,0.013,785,1031,1255,928,2.472,9.339
289,0.000,-3.593,20.644,0.049,2.628,9.437,0.137,-4.603,12.997,-0.038,2.692,9.681,0.000,0.053,-0.053,0.000,0.000,6,-0.002,0.013,785,1031,1255,927,2.564,9.339
290,0.000,-3.593,20.644,0.060,2.573,9.403,0.229,-4.603,12.997,-0.038,2.709,9.693,-0.015,0.054,-0.054,0.000,0.000,6,-0.002,0.013,784,1030,1255,926,2.655,9.430
291,0.000,-3.593,20.644,0.027,2.546,9.434,0.290,-4.603,12.997,-0.038,2.637,9.715,-0.076,0.054,-0.054,0.000,0.000,6,-0.001,0.012,785,1030,1255,928,2.655,9.430
292,0.000,-3.615,20.644,0.038,2.534,9.485,0.229,-4.625,12.997,-0.027,2.625,9.727,0.000,0.054,-0.054,0.000,0.000,6,-0.001,0.013,785,1031,1255,928,2.564,9.430
293,0.000,-3.615,20.644,0.049,2.522,9.490,0.259,-4.625,12.997,-0.038,2.647,9.731,-0.046,0.055,-0.055,0.000,0.000,6,-0.002,0.013,785,1031,1256,927,2.564,9.430
294,0.000,-3.615,20.644,0.060,2.592,9.504,0.412,-4.625,12.997,-0.049,2.601,9.722,0.046,0.055,-0.055,0.000,0.000,6,-0.001,0.012,785,1031,1255,927,2.564,9.339
295,0.000,-3.615,20.644,0.038,2.649,9.528,0.351,-4.647,12.997,-0.049,2.544,9.698,0.000,0.055,-0.055,0.000,0.000,6,-0.001,0.013,784,1031,1255,927,2.472,9.430
296,0.000,-3.615,20.644,0.060,2.673,9.525,0.229,-4.647,12.997,-0.060,2.553,9.693,0.137,0.056,-0.056,0.000,0.000,6,-0.002,0.013,786,1031,1255,927,2.472,9.430
297,0.000,-3.593,20.644,0.049,2.640,9.482,0.290,-4.669,12.997,-0.038,2.570,9.691,0.443,0.056,-0.056,0.000,0.000,6,-0.001,0.013,785,1031,1255,927,2.472,9.430
298,0.000,-3.593,20.644,0.049,2.577,9.497,0.320,-4.691,12.997,-0.060,2.587,9.693,0.504,0.057,-0.057,0.000,0.000,6,-0.001,0.013,786,1031,1255,927,2.564,9.430
299,0.000,-3.593,20.644,0.049,2.637,9.549,0.351,-4.691,12.997,-0.060,2.561,9.688,0.381,0.058,-0.058,0.000,0.000,6,-0.002,0.013,785,1031,1255,927,2.564,9.522
300,0.000,-3.593,20.644,0.049,2.673,9.521,0.351,-4.713,12.997,-0.038,2.503,9.655,0.259,0.058,-0.058,0.000,0.000,6,-0.002,0.013,786,1031,1255,927,2.655,9.522
301,0.000,-3.593,20.644,0.049,2.659,9.480,0.443,-4.735,12.997,-0.060,2.515,9.648,0.137,0.059,-0.059,0.000,0.000,6,-0.001,0.012,786,1031,1255,927,2.564,9.430
302,0.000,-3.571,20.644,0.049,2.709,9.490,0.565,-4.735,12.997,-0.049,2.539,9.674,0.107,0.058,-0.058,0.000,0.000,6,-0.001,0.013,786,1031,1255,927,2.564,9.430
303,0.000,-3.571,20.644,0.049,2.690,9.497,0.717,-4.757,12.997,-0.049,2.558,9.686,0.351,0.059,-0.059,0.000,0.000,6,-0.001,0.012,785,1031,1256,927,2.564,9.522
304,0.000,-3.549,20.644,0.027,2.649,9.490,0.748,-4.757,12.997,-0.060,2.563,9.667,0.412,0.059,-0.059,0.000,0.000,6,-0.002,0.013,786,1031,1255,927,2.655,9.522
305,0.000,-3.549,20.644,0.038,2.700,9.511,0.748,-4.779,12.997,-0.049,2.549,9.638,0.473,0.059,-0.059,0.000,0.000,6,-0.002,0.012,786,1031,1255,927,2.655,9.430
306,0.000,-3.549,20.644,0.038,2.676,9.466,0.870,-4.779,12.997,-0.049,2.518,9.645,0.504,0.058,-0.058,0.000,0.000,6,-0.002,0.012,786,1031,1254,927,2.655,9.430
307,0.000,-3.527,20.644,0.038,2.666,9.470,0.961,-4.801,12.997,-0.049,2.522,9.650,0.443,0.057,-0.057,0.000,0.000,6,-0.001,0.011,786,1031,1255,927,2.655,9.430
308,0.000,-3.527,20.644,0.049,2.700,9.511,0.900,-4.823,12.997,-0.049,2.539,9.631,0.473,0.056,-0.056,0.000,0.000,6,-0.001,0.011,786,1032,1255,927,2.564,9.430
309,0.000,-3.505,20.644,0.038,2.747,9.492,0.778,-4.823,12.997,-0.049,2.513,9.645,0.534,0.054,-0.054,0.000,0.000,6,-0.001,0.011,786,1031,1255,927,2.655,9.430
310,0.000,-3.505,20.644,0.060,2.731,9.458,0.809,-4.845,12.997,-0.049,2.503,9.650,0.656,0.054,-0.054,0.000,0.000,6,-0.001,0.012,786,1031,1254,927,2.655,9.430
311,0.000,-3.483,20.644,0.060,2.719,9.463,0.870,-4.867,12.997,-0.060,2.503,9.640,0.443,0.053,-0.053,0.000,0.000,6,-0.001,0.012,786,1032,1255,927,2.655,9.430
312,0.000,-3.483,20.644,0.038,2.723,9.502,0.870,-4.867,12.997,-0.049,2.520,9.600,0.198,0.053,-0.053,0.000,0.000,6,-0.001,0.015,787,1031,1254,927,2.655,9.430
313,0.000,-3.461,20.644,0.060,2.702,9.528,0.900,-4.867,12.997,-0.038,2.592,9.540,0.412,0.056,-0.056,0.000,0.000,6,-0.002,0.016,786,1032,1255,927,2.747,9.430
314,0.000,-3.461,20.644,0.038,2.664,9.509,0.931,-4.889,12.997,-0.049,2.556,9.583,0.534,0.061,-0.061,0.000,0.000,6,-0.002,0.017,786,1031,1255,927,2.655,9.430
315,0.000,-3.461,20.644,0.038,2.683,9.502,0.931,-4.889,12.997,-0.038,2.518,9.585,0.504,0.066,-0.066,0.000,0.000,6,-0.002,0.018,786,1032,1254,927,2.655,9.430
316,0.000,-3.439,20.644,0.060,2.723,9.499,1.022,-4.889,12.997,-0.049,2.534,9.523,0.473,0.073,-0.073,0.000,0.000,6,-0.002,0.018,786,1031,1255,927,2.655,9.430
317,0.000,-3.439,20.644,0.060,2.692,9.487,1.022,-4.911,12.997,-0.060,2.520,9.537,0.534,0.079,-0.079,0.000,0.000,6,-0.002,0.019,786,1031,1255,927,2.655,9.522
318,0.000,-3.439,20.644,0.049,2.673,9.514,0.931,-4.911,12.997,-0.060,2.501,9.571,0.595,0.086,-0.086,0.000,0.000,6,-0.001,0.019,786,1031,1255,927,2.655,9.430
319,0.000,-3.417,20.644,0.049,2.723,9.523,0.839,-4.933,12.997,-0.060,2.441,9.614,0.473,0.093,-0.093,0.000,0.000,6,-0.001,0.021,787,1032,1253,927,2.655,9.430
320,0.000,-3.417,20.644,0.060,2.719,9.492,0.992,-4.955,12.997,-0.071,2.439,9.595,0.290,0.102,-0.102,0.000,0.000,6,-0.001,0.022,786,1032,1254,927,2.655,9.430
321,0.000,-3.417,20.644,0.060,2.714,9.485,1.022,-4.955,12.997,-0.082,2.520,9.521,0.412,0.112,-0.112,0.000,0.000,6,-0.002,0.023,786,1031,1256,927,2.655,9.430
322,0.000,-3.395,20.644,0.071,2.764,9.516,1.053,-4.977,12.997,-0.093,2.520,9.497,0.381,0.122,-0.122,0.000,0.000,6,-0.001,0.022,786,1031,1255,927,2.655,9.430
323,0.000,-3.373,20.644,0.093,2.774,9.518,1.144,-4.977,12.997,-0.104,2.453,9.540,0.290,0.132,-0.132,0.000,0.000,6,-0.001,0.023,787,1032,1253,928,2.655,9.522
324,0.000,-3.373,20.644,0.093,2.783,9.540,1.236,-4.999,12.997,-0.104,2.434,9.511,0.198,0.142,-0.142,0.000,0.000,6,-0.001,0.026,788,1032,1254,927,2.655,9.430
325,0.000,-3.351,20.644,0.093,2.812,9.564,1.266,-5.021,12.975,-0.126,2.451,9.446,0.168,0.156,-0.156,0.000,0.000,6,-0.001,0.030,787,1032,1255,927,2.655,9.430
326,0.000,-3.351,20.644,0.126,2.738,9.533,1.266,-5.021,12.975,-0.137,2.474,9.473,0.137,0.173,-0.173,0.000,0.000,6,-0.001,0.033,786,1032,1254,927,2.747,9.430
327,0.000,-3.329,20.644,0.126,2.680,9.540,1.266,-5.043,12.975,-0.148,2.460,9.473,-0.046,0.193,-0.193,0.000,0.000,6,-0.001,0.034,787,1032,1255,927,2.747,9.430
328,0.000,-3.329,20.644,0.126,2.676,9.557,1.328,-5.043,12.975,-0.159,2.472,9.461,-0.046,0.213,-0.213,0.000,0.000,6,-0.001,0.034,787,1031,1254,927,2.747,9.522
329,0.000,-3.329,20.644,0.148,2.733,9.583,1.389,-5.065,12.975,-0.181,2.506,9.473,0.046,0.233,-0.233,0.000,0.000,6,-0.001,0.034,786,1032,1254,926,2.747,9.522
330,0.000,-3.329,20.644,0.170,2.807,9.602,1.297,-5.065,12.975,-0.181,2.515,9.473,0.000,0.250,-0.250,0.000,0.000,6,-0.001,0.034,786,1032,1254,928,2.655,9.522
331,0.000,-3.307,20.644,0.170,2.774,9.537,1.297,-5.065,12.975,-0.225,2.541,9.442,-0.137,0.268,-0.268,0.000,0.000,6,-0.001,0.033,787,1032,1255,928,2.655,9.522
332,0.000,-3.307,20.644,0.203,2.731,9.494,1.572,-5.065,12.975,-0.236,2.518,9.434,0.000,0.283,-0.283,0.000,0.000,6,-0.001,0.033,786,1032,1254,927,2.655,9.522
333,0.000,-3.285,20.666,0.225,2.707,9.561,1.663,-5.087,12.975,-0.247,2.565,9.415,0.137,0.298,-0.298,0.000,0.000,6,-0.001,0.032,786,1032,1254,926,2.655,9.522
334,0.000,-3.285,20.666,0.247,2.738,9.612,2.060,-5.087,12.953,-0.258,2.580,9.377,0.015,0.311,-0.311,0.000,0.000,6,-0.001,0.032,785,1032,1254,927,2.747,9.522
335,0.000,-3.285,20.666,0.291,2.719,9.597,2.274,-5.087,12.953,-0.269,2.597,9.370,0.046,0.323,-0.323,0.000,0.000,6,-0.001,0.031,787,1032,1254,927,2.747,9.522
336,0.000,-3.263,20.666,0.291,2.688,9.576,2.365,-5.087,12.931,-0.302,2.620,9.396,0.168,0.333,-0.333,0.000,0.000,6,-0.001,0.030,786,1032,1254,927,2.655,9.430
337,0.000,-3.263,20.666,0.291,2.728,9.602,2.640,-5.087,12.931,-0.313,2.611,9.442,0.351,0.341,-0.341,0.000,0.000,6,-0.001,0.029,786,1032,1254,927,2.655,9.522
338,0.000,-3.241,20.688,0.291,2.793,9.640,2.762,-5.109,12.909,-0.313,2.592,9.478,0.473,0.348,-0.348,0.000,0.000,6,-0.001,0.030,786,1032,1254,927,2.655,9.522
339,0.000,-3.241,20.688,0.302,2.740,9.636,2.853,-5.109,12.887,-0.335,2.719,9.413,0.748,0.357,-0.357,0.000,0.000,6,-0.001,0.030,787,1032,1254,927,2.655,9.522
340,0.000,-3.219,20.688,0.324,2.692,9.631,3.037,-5.131,12.865,-0.346,2.410,9.482,0.748,0.363,-0.363,0.000,0.000,6,-0.001,0.030,786,1032,1254,927,2.655,9.522
341,0.000,-3.219,20.710,0.324,2.673,9.681,3.281,-5.197,12.843,-0.357,1.941,9.609,0.046,0.370,-0.370,0.000,0.000,6,-0.000,0.028,786,1032,1254,927,2.655,9.522
342,0.000,-3.219,20.710,0.335,2.659,9.715,3.494,-5.306,12.821,-0.357,1.711,9.600,-0.870,0.374,-0.374,0.000,0.000,6,-0.001,0.028,786,1032,1255,927,2.747,9.613
343,0.000,-3.219,20.732,0.335,2.714,9.777,3.616,-5.394,12.799,-0.357,1.878,9.688,-1.724,0.378,-0.378,0.000,0.000,6,-0.001,0.027,787,1032,1254,927,2.655,9.613
344,0.000,-3.219,20.732,0.346,2.814,9.755,3.799,-5.482,12.777,-0.357,2.355,10.031,-2.670,0.380,-0.380,0.000,0.000,6,-0.001,0.026,786,1032,1254,927,2.655,9.613
345,0.000,-3.197,20.732,0.368,2.968,9.727,4.318,-5.504,12.755,-0.346,2.884,9.858,-3.861,0.382,-0.382,0.000,0.000,6,-0.001,0.025,787,1033,1254,927,2.655,9.613
346,0.000,-3.153,20.753,0.357,3.023,9.758,4.562,-5.482,12.733,-0.379,2.999,9.377,-4.440,0.382,-0.382,0.000,0.000,6,-0.001,0.024,786,1033,1254,927,2.655,9.705
347,0.000,-3.131,20.753,0.368,2.872,9.806,4.532,-5.482,12.689,-0.368,2.676,9.427,-4.593,0.381,-0.381,0.000,0.000,6,-0.001,0.024,786,1033,1255,927,2.655,9.705
348,0.000,-3.131,20.775,0.390,2.697,9.753,4.410,-5.482,12.667,-0.368,2.934,9.595,-4.654,0.380,-0.380,0.000,0.000,6,-0.001,0.025,786,1033,1255,927,2.747,9.705
349,0.000,-3.131,20.775,0.368,2.491,9.478,4.318,-5.482,12.623,-0.368,2.707,9.827,-5.234,0.379,-0.379,0.000,0.000,6,-0.001,0.025,786,1033,1255,927,2.930,9.705
350,0.000,-3.153,20.775,0.379,2.233,9.384,3.677,-5.504,12.602,-0.357,2.479,9.676,-5.997,0.380,-0.380,0.000,0.000,6,-0.001,0.025,786,1032,1254,927,3.021,9.705
351,0.000,-3.197,20.797,0.368,2.257,9.336,3.128,-5.548,12.558,-0.368,2.544,9.559,-6.851,0.380,-0.380,0.000,0.000,6,-0.001,0.026,787,1033,1254,927,2.838,9.796
352,0.000,-3.219,20.797,0.379,2.441,9.221,3.098,-5.592,12.536,-0.346,2.441,9.875,-7.523,0.381,-0.381,0.000,0.000,6,-0.001,0.028,786,1033,1255,927,2.655,9.705
353,0.000,-3.219,20.797,0.379,2.530,9.145,3.250,-5.636,12.492,-0.368,2.448,9.973,-8.255,0.385,-0.385,0.000,0.000,6,-0.001,0.033,786,1033,1255,927,2.472,9.430
354,0.000,-3.219,20.797,0.368,2.558,9.073,3.037,-5.680,12.470,-0.379,2.367,10.021,-9.293,0.395,-0.395,0.000,0.000,6,-0.001,0.037,787,1033,1254,927,2.197,9.339
355,0.000,-3.219,20.797,0.379,2.453,9.097,2.762,-5.724,12.448,-0.368,2.486,10.050,-10.269,0.409,-0.409,0.000,0.000,6,-0.001,0.040,786,1033,1254,927,2.197,9.247
356,0.000,-3.219,20.797,0.368,2.374,9.004,2.365,-5.746,12.404,-0.390,2.673,9.978,-10.910,0.426,-0.426,0.000,0.000,6,-0.001,0.040,787,1033,1255,927,2.380,9.155
357,0.000,-3.241,20.819,0.379,2.304,8.898,1.968,-5.746,12.382,-0.390,2.953,9.913,-11.246,0.444,-0.444,0.000,0.000,6,-0.001,0.040,786,1033,1255,927,2.472,9.064
358,0.000,-3.263,20.819,0.357,2.202,8.805,1.511,-5.724,12.360,-0.412,3.305,9.760,-11.276,0.459,-0.459,0.000,0.000,6,-0.001,0.039,786,1033,1254,927,2.472,9.064
359,0.000,-3.285,20.819,0.401,2.185,8.776,1.053,-5.658,12.338,-0.445,3.394,9.576,-10.910,0.473,-0.473,0.000,0.000,6,-0.001,0.039,786,1033,1254,927,2.380,9.064
360,0.000,-3.307,20.819,0.412,2.233,8.778,0.504,-5.570,12.316,-0.467,3.432,9.442,-10.330,0.485,-0.485,0.000,0.000,6,-0.001,0.038,787,1033,1256,927,2.289,8.972
361,0.000,-3.329,20.819,0.423,2.247,8.680,0.015,-5.504,12.294,-0.456,3.447,9.329,-10.056,0.496,-0.496,0.000,0.000,6,-0.001,0.040,787,1034,1255,927,2.289,8.881
362,0.000,-3.351,20.819,0.434,2.216,8.613,-0.290,-5.416,12.272,-0.478,3.296,9.274,-9.781,0.509,-0.509,0.000,0.000,6,-0.001,0.044,787,1033,1253,927,2.197,8.789
363,0.000,-3.373,20.819,0.467,2.132,8.623,-0.534,-5.350,12.250,-0.489,3.183,9.265,-9.476,0.527,-0.527,0.000,0.000,6,-0.001,0.048,788,1034,1254,927,2.106,8.698
364,0.000,-3.395,20.819,0.478,2.022,8.635,-0.931,-5.306,12.250,-0.511,3.138,9.315,-9.079,0.548,-0.548,0.000,0.000,6,-0.001,0.050,787,1033,1254,927,2.197,8.698
365,0.000,-3.439,20.819,0.478,2.005,8.678,-1.297,-5.241,12.228,-0.522,3.152,9.403,-8.469,0.570,-0.570,0.000,0.000,6,-0.001,0.050,787,1033,1255,927,2.197,8.606
366,0.000,-3.483,20.819,0.500,1.969,8.752,-1.389,-5.197,12.228,-0.533,3.150,9.434,-7.889,0.592,-0.592,0.000,0.000,6,-0.001,0.050,787,1034,1255,927,2.197,8.606
367,0.000,-3.527,20.819,0.489,1.926,8.812,-1.480,-5.153,12.206,-0.555,3.169,9.439,-7.431,0.613,-0.613,0.000,0.000,6,-0.001,0.049,787,1033,1254,927,2.106,8.606
368,0.000,-3.571,20.819,0.511,1.902,8.867,-1.724,-5.109,12.206,-0.577,3.245,9.423,-7.034,0.630,-0.630,0.000,0.000,6,-0.001,0.048,786,1034,1255,926,2.014,8.606
369,0.000,-3.615,20.819,0.566,1.950,8.951,-1.968,-5.043,12.184,-0.599,3.188,9.423,-6.485,0.647,-0.647,0.000,0.000,6,-0.001,0.047,787,1033,1254,927,1.923,8.606
370,0.000,-3.659,20.841,0.566,2.000,9.016,-2.182,-4.999,12.184,-0.632,3.116,9.432,-5.966,0.661,-0.661,0.000,0.000,6,-0.002,0.046,787,1034,1255,928,1.923,8.698
371,0.000,-3.702,20.841,0.621,2.015,9.109,-2.487,-4.955,12.184,-0.643,3.114,9.454,-5.509,0.673,-0.673,0.000,0.000,6,-0.001,0.045,787,1034,1255,927,1.923,8.789
372,0.000,-3.746,20.841,0.610,2.087,9.221,-2.579,-4.933,12.162,-0.654,3.087,9.542,-5.203,0.683,-0.683,0.000,0.000,6,-0.001,0.046,787,1034,1254,925,1.831,8.789
373,0.000,-3.768,20.863,0.632,2.197,9.312,-2.579,-4.889,12.162,-0.665,3.056,9.600,-4.959,0.695,-0.695,0.000,0.000,6,-0.001,0.048,787,1034,1254,927,1.923,8.881
374,0.000,-3.768,20.863,0.654,2.297,9.406,-2.487,-4.867,12.140,-0.665,3.073,9.621,-4.959,0.708,-0.708,0.000,0.000,6,-0.001,0.054,787,1034,1254,927,1.923,8.972
375,0.000,-3.768,20.885,0.654,2.328,9.454,-2.365,-4.845,12.140,-0.687,3.090,9.645,-4.898,0.728,-0.728,0.000,0.000,6,-0.001,0.063,788,1034,1254,927,2.014,9.064
376,0.000,-3.768,20.885,0.665,2.465,9.705,-2.182,-4.823,12.118,-0.687,3.099,9.664,-4.776,0.758,-0.758,0.000,0.000,6,-0.001,0.069,788,1034,1255,927,2.014,9.155
377,0.000,-3.768,20.907,0.665,2.527,9.786,-1.877,-4.801,12.118,-0.709,3.142,9.693,-4.654,0.794,-0.794,0.000,0.000,6,-0.001,0.072,788,1034,1255,927,2.197,9.247
378,0.000,-3.746,20.929,0.709,2.673,9.899,-1.633,-4.779,12.096,-0.742,3.138,9.710,-4.746,0.833,-0.833,0.000,0.000,6,-0.001,0.072,788,1034,1255,927,2.289,9.339
379,0.000,-3.724,20.929,0.742,2.771,10.016,-1.236,-4.757,12.096,-0.775,3.130,9.705,-4.868,0.869,-0.869,0.000,0.000,6,-0.001,0.071,788,1034,1254,927,2.289,9.430
380,0.000,-3.702,20.951,0.753,2.788,10.083,-0.900,-4.735,12.074,-0.797,3.116,9.734,-4.837,0.902,-0.902,0.000,0.000,6,-0.001,0.070,788,1034,1255,927,2.380,9.705
381,0.000,-3.659,20.973,0.775,2.850,10.165,-0.259,-4.713,12.074,-0.840,3.061,9.794,-5.081,0.932,-0.932,0.000,0.000,6,-0.001,0.068,788,1034,1255,927,2.472,9.705
382,0.000,-3.637,20.995,0.840,2.929,10.229,0.259,-4.713,12.052,-0.873,3.054,9.849,-5.295,0.959,-0.959,0.000,0.000,6,-0.001,0.067,788,1034,1254,926,2.655,9.888
383,0.000,-3.593,21.017,0.862,2.934,10.272,0.656,-4.713,12.030,-0.917,2.994,9.846,-5.753,0.982,-0.982,0.000,0.000,6,-0.001,0.066,788,1034,1254,926,2.747,9.979
384,0.000,-3.549,21.039,0.895,2.910,10.268,1.083,-4.713,12.008,-0.939,2.996,9.856,-6.302,1.004,-1.004,0.000,0.000,6,-0.001,0.065,789,1035,1254,927,2.747,10.071
385,0.000,-3.505,21.061,0.928,3.013,10.313,1.816,-4.735,11.986,-0.961,2.949,9.942,-7.126,1.023,-1.023,0.000,0.000,6,-0.001,0.064,789,1034,1254,927,2.838,10.163
386,0.000,-3.461,21.083,0.928,3.056,10.371,2.396,-4.757,11.942,-0.983,2.858,9.985,-8.103,1.041,-1.041,0.000,0.000,6,-0.001,0.064,788,1035,1255,927,2.930,10.163
387,0.000,-3.395,21.105,0.972,3.130,10.419,3.006,-4.801,11.920,-0.994,2.841,10.023,-9.049,1.056,-1.056,0.000,0.000,6,-0.001,0.065,788,1034,1255,927,2.930,10.254
388,0.000,-3.329,21.149,0.983,3.327,10.450,3.861,-4.845,11.876,-1.038,2.668,10.122,-10.361,1.073,-1.073,0.000,0.000,6,-0.001,0.066,788,1034,1254,926,2.838,10.254
389,0.000,-3.241,21.171,1.016,3.779,10.430,5.783,-4.911,11.832,-1.049,2.388,10.244,-11.978,1.090,-1.090,0.000,0.000,6,-0.001,0.067,788,1035,1254,927,2.930,10.254
390,0.000,-3.087,21.215,1.027,4.519,10.450,8.255,-4.999,11.789,-1.060,2.376,10.320,-13.535,1.107,-1.107,0.000,0.000,6,-0.001,0.070,790,1034,1254,926,3.021,10.346
391,0.000,-2.911,21.237,1.049,4.268,10.251,10.025,-5.087,11.745,-1.082,2.635,10.239,-14.878,1.127,-1.127,0.000,0.000,6,-0.001,0.076,789,1035,1255,927,3.113,10.346
392,0.000,-2.780,21.281,1.060,3.700,10.095,11.368,-5.131,11.701,-1.093,2.949,10.193,-16.037,1.153,-1.153,0.000,0.000,6,-0.001,0.081,789,1035,1255,927,3.296,10.437
393,0.000,-2.670,21.325,1.082,3.470,10.222,12.558,-5.153,11.657,-1.137,3.415,10.191,-16.892,1.184,-1.184,0.000,0.000,6,-0.001,0.082,789,1035,1254,927,3.754,10.346
394,0.000,-2.626,21.369,1.093,2.884,10.129,13.077,-5.131,11.591,-1.148,3.789,10.098,-17.685,1.216,-1.216,0.000,0.000,6,-0.001,0.081,789,1035,1254,927,4.486,10.437
395,0.000,-2.582,21.413,1.104,2.680,9.973,13.260,-5.087,11.547,-1.170,4.031,10.021,-18.509,1.245,-1.245,0.000,0.000,6,-0.001,0.079,789,1035,1255,927,4.211,10.163
396,0.000,-2.560,21.457,1.148,2.846,9.983,13.474,-4.999,11.481,-1.203,4.239,9.947,-19.150,1.268,-1.268,0.000,0.000,6,-0.001,0.078,789,1035,1255,927,3.662,10.071
397,0.000,-2.516,21.479,1.159,2.829,9.873,13.718,-4.911,11.437,-1.225,4.433,9.894,-19.333,1.290,-1.290,0.000,0.000,6,-0.001,0.077,789,1035,1253,927,3.388,10.163
398,0.000,-2.494,21.523,1.203,2.853,9.796,14.511,-4.801,11.371,-1.258,4.596,9.825,-19.394,1.310,-1.310,0.000,0.000,6,-0.001,0.075,789,1035,1254,926,2.838,10.071
399,0.000,-2.450,21.566,1.247,2.836,9.561,15.122,-4.669,11.327,-1.280,4.838,9.616,-19.120,1.326,-1.326,0.000,0.000,6,-0.002,0.074,790,1035,1256,926,2.655,9.888
400,0.000,-2.406,21.610,1.247,2.767,9.212,15.702,-4.537,11.283,-1.291,4.991,9.379,-18.570,1.341,-1.341,0.000,0.000,6,-0.001,0.072,790,1035,1255,927,2.838,9.979
401,0.000,-2.362,21.654,1.291,2.716,9.197,16.526,-4.384,11.217,-1.324,4.907,9.353,-17.929,1.352,-1.352,0.000,0.000,6,-0.001,0.071,790,1036,1253,927,2.747,9.796
402,0.000,-2.318,21.698,1.302,2.331,9.080,16.892,-4.230,11.173,-1.335,4.871,9.427,-17.563,1.361,-1.361,0.000,0.000,6,-0.001,0.070,792,1035,1254,927,2.838,9.796
403,0.000,-2.340,21.742,1.324,1.962,8.802,16.953,-4.120,11.107,-1.335,4.680,9.535,-17.594,1.367,-1.367,0.000,0.000,6,-0.001,0.069,790,1036,1255,926,2.747,9.522
404,0.000,-2.362,21.786,1.346,2.065,8.733,17.105,-4.032,11.063,-1.357,4.522,9.609,-17.502,1.373,-1.373,0.000,0.000,6,-0.001,0.067,791,1035,1256,927,2.747,9.155
405,0.000,-2.340,21.830,1.346,2.388,8.671,17.533,-3.944,10.997,-1.357,4.634,9.736,-17.380,1.377,-1.377,0.000,0.000,6,-0.001,0.067,791,1036,1255,927,2.655,9.155
406,0.000,-2.318,21.874,1.335,2.597,8.601,18.112,-3.856,10.954,-1.368,4.703,9.820,-17.319,1.379,-1.379,0.000,0.000,6,-0.001,0.073,791,1036,1255,926,2.289,9.064
407,0.000,-2.252,21.918,1.346,2.743,8.630,18.601,-3.768,10.888,-1.357,4.809,9.734,-17.227,1.390,-1.390,0.000,0.000,6,-0.001,0.085,790,1036,1255,926,1.923,8.789
408,0.000,-2.164,21.962,1.357,3.262,8.817,19.272,-3.702,10.822,-1.368,4.605,9.851,-17.227,1.414,-1.414,0.000,0.000,6,-0.001,0.094,791,1035,1255,927,2.014,8.698
409,0.000,-2.054,22.006,1.368,2.783,8.824,19.516,-3.637,10.778,-1.368,4.490,9.956,-16.709,1.450,-1.450,0.000,0.000,6,-0.001,0.098,791,1036,1255,927,2.380,8.606
410,0.000,-2.033,22.072,1.368,2.223,8.716,19.516,-3.571,10.734,-1.423,4.948,9.559,-15.732,1.487,-1.487,0.000,0.000,6,-0.001,0.096,791,1036,1255,927,2.564,8.515
411,0.000,-2.076,22.116,1.357,1.148,8.527,19.242,-3.461,10.668,-1.434,5.209,9.128,-14.603,1.520,-1.520,0.000,0.000,6,-0.000,0.094,792,1036,1254,926,2.655,8.606
412,0.000,-2.164,22.160,1.412,1.167,8.290,18.845,-3.351,10.624,-1.478,5.043,9.166,-13.291,1.550,-1.550,0.000,0.000,6,-0.001,0.093,790,1036,1255,927,3.204,8.789
413,0.000,-2.230,22.204,1.445,1.289,8.134,18.479,-3.241,10.580,-1.489,5.309,9.083,-12.222,1.577,-1.577,0.000,0.000,6,-0.001,0.092,791,1036,1254,927,2.747,8.789
414,0.000,-2.296,22.248,1.478,1.241,8.276,18.235,-3.109,10.536,-1.544,5.570,8.920,-10.849,1.601,-1.601,0.000,0.000,6,-0.001,0.090,792,1036,1255,927,2.197,8.698
415,0.000,-2.362,22.292,1.500,1.524,8.546,17.899,-2.999,10.492,-1.566,5.360,8.972,-9.415,1.621,-1.621,0.000,0.000,6,-0.001,0.089,791,1036,1255,927,1.099,8.515
416,0.000,-2.362,22.358,1.544,2.108,8.661,17.777,-2.911,10.448,-1.599,4.833,9.138,-8.225,1.639,-1.639,0.000,0.000,6,-0.001,0.088,791,1036,1255,927,1.099,8.240
417,0.000,-2.340,22.401,1.566,2.269,8.585,17.929,-2.846,10.382,-1.610,4.488,9.097,-7.218,1.656,-1.656,0.000,0.000,6,-0.001,0.087,792,1036,1255,926,1.282,8.057
418,0.000,-2.318,22.445,1.588,2.036,8.676,18.112,-2.802,10.338,-1.621,4.452,8.994,-6.546,1.669,-1.669,0.000,0.000,6,-0.001,0.088,791,1036,1255,927,1.190,8.240
419,0.000,-2.318,22.489,1.610,1.773,8.810,18.357,-2.758,10.294,-1.642,4.296,9.166,-6.119,1.684,-1.684,0.000,0.000,6,-0.001,0.087,792,1036,1255,927,1.465,8.515
420,0.000,-2.340,22.555,1.631,1.641,8.822,18.662,-2.758,10.250,-1.664,3.806,9.504,-6.027,1.696,-1.696,0.000,0.000,6,-0.001,0.085,792,1036,1255,927,2.106,8.606
421,0.000,-2.340,22.599,1.653,1.727,8.927,18.967,-2.802,10.184,-1.686,3.511,9.545,-6.363,1.705,-1.705,0.000,0.000,6,-0.002,0.084,791,1036,1254,927,2.197,8.515
422,0.000,-2.340,22.643,1.653,1.814,9.183,19.272,-2.846,10.141,-1.675,3.696,9.394,-6.363,1.713,-1.713,0.000,0.000,6,-0.002,0.082,792,1036,1255,927,2.014,8.606
423,0.000,-2.340,22.709,1.664,1.780,9.389,19.608,-2.867,10.075,-1.686,3.858,9.456,-6.546,1.718,-1.718,0.000,0.000,6,-0.001,0.081,791,1036,1255,927,1.740,8.789
424,0.000,-2.340,22.753,1.664,1.785,9.449,20.127,-2.889,10.031,-1.697,4.203,9.523,-6.851,1.721,-1.721,0.000,0.000,6,-0.002,0.079,792,1037,1255,927,1.556,8.789
425,0.000,-2.340,22.797,1.686,1.984,9.521,20.523,-2.867,9.965,-1.708,4.579,9.363,-6.790,1.721,-1.721,0.000,0.000,6,-0.002,0.078,792,1037,1255,927,1.648,8.881
426,0.000,-2.318,22.863,1.697,2.242,9.547,20.645,-2.846,9.921,-1.719,4.668,9.250,-6.577,1.720,-1.720,0.000,0.000,6,-0.002,0.076,792,1036,1255,927,1.740,9.155
427,0.000,-2.296,22.907,1.686,2.632,9.648,20.920,-2.802,9.855,-1.686,4.696,9.209,-6.424,1.717,-1.717,0.000,0.000,6,-0.001,0.075,792,1036,1255,926,1.740,9.339
428,0.000,-2.230,22.973,1.719,3.221,9.736,21.256,-2.780,9.811,-1.730,4.617,9.085,-6.210,1.713,-1.713,0.000,0.000,6,-0.002,0.074,792,1036,1254,926,1.740,9.430
429,0.000,-2.164,23.017,1.719,3.952,9.801,21.958,-2.736,9.745,-1.686,4.557,8.908,-5.936,1.707,-1.707,0.000,0.000,6,-0.002,0.072,793,1036,1254,926,1.923,9.522
430,0.000,-2.098,23.061,1.719,3.947,9.770,22.202,-2.714,9.701,-1.697,4.589,8.836,-5.356,1.700,-1.700,0.000,0.000,6,-0.002,0.072,792,1036,1255,926,2.197,9.522
431,0.000,-2.033,23.127,1.719,3.020,9.609,21.866,-2.648,9.657,-1.686,4.720,8.711,-4.440,1.692,-1.692,0.000,0.000,6,-0.002,0.070,792,1035,1256,927,2.564,9.613
432,0.000,-1.989,23.171,1.708,2.257,9.454,21.286,-2.604,9.591,-1.697,4.689,8.599,-3.555,1.682,-1.682,0.000,0.000,6,-0.002,0.069,792,1035,1254,927,3.204,9.705
433,0.000,-1.989,23.214,1.697,1.320,9.178,20.462,-2.560,9.547,-1.686,4.514,8.790,-2.762,1.673,-1.673,0.000,0.000,6,-0.002,0.069,792,1035,1254,926,3.937,9.796
434,0.000,-1.989,23.258,1.697,0.624,9.121,19.455,-2.516,9.503,-1.664,4.510,8.944,-2.213,1.663,-1.663,0.000,0.000,6,-0.002,0.070,793,1035,1255,926,3.937,9.705
435,0.000,-2.033,23.302,1.697,0.552,9.162,18.235,-2.494,9.459,-1.642,4.366,9.023,-1.663,1.656,-1.656,0.000,0.000,6,-0.002,0.072,792,1034,1255,927,3.021,9.522
436,0.000,-2.054,23.346,1.686,0.636,9.193,16.648,-2.472,9.415,-1.653,4.167,9.037,-1.083,1.651,-1.651,0.000,0.000,6,-0.002,0.074,793,1035,1254,927,2.197,9.430
437,0.000,-2.076,23.390,1.664,1.225,9.329,15.518,-2.472,9.371,-1.653,4.021,9.023,-0.504,1.648,-1.648,0.000,0.000,6,-0.002,0.073,792,1034,1255,927,1.282,9.155
438,0.000,-2.076,23.434,1.653,1.847,9.339,14.481,-2.494,9.350,-1.642,3.947,9.025,0.000,1.645,-1.645,0.000,0.000,6,-0.002,0.072,792,1034,1256,927,0.549,9.064
439,0.000,-2.054,23.456,1.653,2.233,9.377,13.413,-2.494,9.306,-1.642,3.858,8.884,0.534,1.641,-1.641,0.000,0.000,6,-0.002,0.070,793,1034,1255,926,0.549,9.155
440,0.000,-2.033,23.478,1.642,2.630,9.475,12.528,-2.516,9.262,-1.642,3.731,8.735,1.205,1.635,-1.635,0.000,0.000,6,-0.002,0.070,793,1034,1254,927,0.549,9.155
441,0.000,-2.011,23.500,1.642,2.692,9.396,11.460,-2.516,9.218,-1.621,3.822,8.659,2.090,1.628,-1.628,0.000,0.000,6,-0.002,0.070,795,1034,1254,927,1.190,9.247
442,0.000,-2.011,23.522,1.642,2.477,9.236,10.208,-2.516,9.196,-1.631,3.760,8.642,2.792,1.622,-1.622,0.000,0.000,6,-0.002,0.074,793,1034,1255,926,1.831,9.339
443,0.000,-1.989,23.544,1.631,2.424,9.171,8.896,-2.538,9.174,-1.621,3.621,8.664,3.403,1.621,-1.621,0.000,0.000,6,-0.002,0.077,793,1034,1255,926,2.197,9.339
444,0.000,-1.989,23.566,1.631,2.321,9.118,7.584,-2.538,9.130,-1.621,3.717,8.616,4.257,1.624,-1.624,0.000,0.000,6,-0.002,0.079,793,1033,1255,927,2.564,9.430
445,0.000,-1.967,23.588,1.621,2.319,9.121,6.424,-2.538,9.108,-1.621,3.655,8.556,5.325,1.629,-1.629,0.000,0.000,6,-0.002,0.082,793,1033,1254,926,2.655,9.339
446,0.000,-1.967,23.588,1.599,2.910,9.145,5.325,-2.560,9.086,-1.610,3.561,8.527,6.394,1.637,-1.637,0.000,0.000,6,-0.002,0.083,792,1033,1255,925,2.472,9.155
447,0.000,-1.945,23.588,1.599,3.080,9.099,4.654,-2.560,9.064,-1.610,3.499,8.388,7.736,1.648,-1.648,0.000,0.000,6,-0.002,0.085,793,1033,1255,927,2.380,9.155
448,0.000,-1.901,23.610,1.621,3.166,9.162,3.922,-2.582,9.064,-1.642,3.255,8.259,8.957,1.660,-1.660,0.000,0.000,6,-0.003,0.088,793,1033,1254,927,2.289,9.064
449,0.000,-1.879,23.610,1.621,3.104,9.197,3.159,-2.626,9.042,-1.631,3.025,8.204,10.086,1.675,-1.675,0.000,0.000,6,-0.003,0.090,793,1033,1255,927,2.289,9.064
450,0.000,-1.857,23.610,1.631,2.984,9.219,2.426,-2.670,9.020,-1.653,2.707,8.218,10.941,1.691,-1.691,0.000,0.000,6,-0.002,0.093,793,1032,1255,925,2.838,9.064
451,0.000,-1.835,23.610,1.642,3.068,9.372,1.816,-2.736,9.020,-1.664,2.470,8.237,11.673,1.711,-1.711,0.000,0.000,6,-0.003,0.094,792,1033,1255,926,3.021,9.064
452,0.000,-1.813,23.632,1.642,3.205,9.540,1.480,-2.824,8.998,-1.675,2.225,8.269,12.314,1.731,-1.731,0.000,0.000,6,-0.003,0.094,793,1033,1254,927,3.113,9.155
453,0.000,-1.791,23.632,1.631,3.312,9.691,1.144,-2.911,8.998,-1.686,1.826,8.336,12.772,1.749,-1.749,0.000,0.000,6,-0.003,0.092,794,1032,1255,927,3.021,9.155
454,0.000,-1.769,23.632,1.675,3.518,9.966,1.053,-3.021,8.998,-1.730,1.720,8.367,13.230,1.765,-1.765,0.000,0.000,6,-0.003,0.090,794,1032,1255,927,2.930,9.155
455,0.000,-1.725,23.632,1.697,3.696,10.229,1.144,-3.131,8.976,-1.730,1.560,8.501,13.504,1.778,-1.778,0.000,0.000,6,-0.003,0.089,794,1032,1255,926,3.021,9.339
456,0.000,-1.703,23.654,1.719,3.736,10.426,1.022,-3.241,8.976,-1.763,1.371,8.503,13.352,1.789,-1.789,0.000,0.000,6,-0.003,0.087,794,1032,1254,926,3.204,9.522
457,0.000,-1.681,23.654,1.730,3.719,10.668,0.992,-3.351,8.954,-1.763,1.294,8.491,13.169,1.796,-1.796,0.000,0.000,6,-0.003,0.086,794,1032,1255,927,3.296,9.613
458,0.000,-1.637,23.654,1.752,3.782,10.902,1.144,-3.461,8.954,-1.774,1.237,8.589,12.833,1.801,-1.801,0.000,0.000,6,-0.003,0.084,795,1032,1254,926,3.479,9.888
459,0.000,-1.615,23.654,1.763,3.899,11.132,1.266,-3.571,8.932,-1.774,1.153,8.683,12.222,1.805,-1.805,0.000,0.000,6,-0.003,0.087,794,1031,1255,927,3.662,10.163
460,0.000,-1.593,23.676,1.785,3.952,11.326,1.541,-3.680,8.932,-1.774,1.115,8.719,11.643,1.811,-1.811,0.000,0.000,6,-0.003,0.095,794,1032,1255,926,3.662,10.346
461,0.000,-1.549,23.676,1.785,4.112,11.470,1.938,-3.790,8.910,-1.796,1.007,8.750,10.849,1.827,-1.827,0.000,0.000,6,-0.003,0.103,794,1031,1253,926,3.662,10.620
462,0.000,-1.527,23.698,1.785,4.301,11.613,2.335,-3.900,8.888,-1.807,0.995,8.848,10.117,1.853,-1.853,0.000,0.000,6,-0.003,0.112,795,1031,1254,927,3.754,10.895
463,0.000,-1.505,23.698,1.796,4.284,11.673,2.792,-4.010,8.866,-1.818,1.107,8.891,9.384,1.888,-1.888,0.000,0.000,6,-0.003,0.123,795,1031,1254,927,3.845,11.078
464,0.000,-1.461,23.720,1.796,4.244,11.676,3.189,-4.098,8.866,-1.829,1.088,8.932,8.103,1.936,-1.936,0.000,0.000,6,-0.003,0.133,795,1032,1254,927,3.937,11.261
465,0.000,-1.439,23.720,1.829,4.308,11.687,3.677,-4.208,8.822,-1.873,1.115,9.008,7.095,1.993,-1.993,0.000,0.000,6,-0.003,0.145,795,1031,1254,926,4.028,11.444
466,0.000,-1.417,23.742,1.829,4.368,11.671,3.952,-4.296,8.800,-1.939,1.150,9.056,6.119,2.063,-2.063,0.000,0.000,6,-0.003,0.154,796,1031,1254,926,4.211,11.536
467,0.000,-1.373,23.742,1.884,4.871,11.697,4.746,-4.406,8.778,-1.983,1.162,9.126,5.325,2.140,-2.140,0.000,0.000,6,-0.003,0.161,796,1032,1254,927,4.211,11.627
468,0.000,-1.351,23.764,1.917,5.206,11.656,5.905,-4.515,8.756,-2.049,1.105,9.195,4.440,2.222,-2.222,0.000,0.000,6,-0.003,0.167,798,1031,1253,927,4.211,11.627
469,0.000,-1.307,23.764,1.983,4.699,11.520,6.485,-4.625,8.712,-2.126,1.004,9.363,3.006,2.309,-2.309,0.000,0.000,6,-0.002,0.166,796,1031,1254,926,4.303,11.627
470,0.000,-1.285,23.786,2.060,4.217,11.393,7.034,-4.735,8.668,-2.203,0.923,9.533,1.297,2.389,-2.389,0.000,0.000,6,-0.002,0.164,796,1032,1255,927,4.303,11.627
471,0.000,-1.241,23.808,2.126,4.081,11.132,7.889,-4.867,8.624,-2.291,0.667,9.772,-0.656,2.463,-2.463,0.000,0.000,6,-0.002,0.162,796,1032,1253,926,4.852,11.627
472,0.000,-1.220,23.830,2.192,4.112,11.091,9.049,-4.999,8.580,-2.357,0.401,10.067,-2.884,2.531,-2.531,0.000,0.000,6,-0.002,0.160,796,1031,1253,926,5.127,11.627
473,0.000,-1.176,23.852,2.280,4.328,11.079,10.513,-5.153,8.515,-2.444,0.339,10.320,-5.478,2.592,-2.592,0.000,0.000,6,-0.002,0.157,796,1032,1253,926,4.669,11.444
474,0.000,-1.132,23.874,2.379,4.725,10.993,12.222,-5.285,8.471,-2.499,0.461,10.514,-8.255,2.648,-2.648,0.000,0.000,6,-0.002,0.155,797,1032,1254,926,4.211,11.353
475,0.000,-1.088,23.918,2.444,5.180,11.170,14.267,-5.438,8.383,-2.576,0.581,10.668,-11.124,2.698,-2.698,0.000,0.000,6,-0.002,0.153,797,1032,1252,926,4.028,11.078
476,0.000,-1.022,23.962,2.510,5.620,11.189,16.770,-5.570,8.317,-2.620,0.447,10.830,-14.084,2.742,-2.742,0.000,0.000,6,-0.002,0.151,797,1032,1253,926,4.028,11.078
477,0.000,-0.956,24.005,2.587,6.030,11.103,19.913,-5.724,8.229,-2.686,0.748,10.873,-16.617,2.782,-2.782,0.000,0.000,6,-0.002,0.149,797,1031,1255,926,4.303,11.078
478,0.000,-0.868,24.071,2.631,5.836,11.019,22.843,-5.856,8.141,-2.708,0.672,10.964,-19.333,2.817,-2.817,0.000,0.000,6,-0.002,0.146,798,1031,1254,926,4.669,10.986
479,0.000,-0.780,24.137,2.686,5.192,11.012,25.406,-6.010,8.053,-2.752,0.561,10.940,-22.385,2.847,-2.847,0.000,0.000,6,-0.002,0.144,798,1031,1252,927,5.127,11.170
480,0.000,-0.714,24.203,2.719,4.778,10.787,27.726,-6.141,7.943,-2.796,0.954,11.048,-25.040,2.873,-2.873,0.000,0.000,6,-0.002,0.142,800,1031,1252,927,5.585,11.170
481,0.000,-0.648,24.291,2.763,4.086,10.644,30.198,-6.273,7.833,-2.829,1.438,11.517,-27.512,2.894,-2.894,0.000,0.000,6,-0.002,0.140,799,1031,1253,925,5.951,11.078
482,0.000,-0.582,24.379,2.818,3.909,10.682,32.456,-6.383,7.724,-2.862,2.436,11.635,-29.862,2.913,-2.913,0.000,0.000,6,-0.002,0.141,798,1031,1253,926,5.768,10.986
483,0.000,-0.494,24.467,2.851,3.851,10.600,34.928,-6.493,7.614,-2.884,2.738,11.594,-32.303,2.932,-2.932,0.000,0.000,6,-0.002,0.144,798,1031,1253,927,5.127,10.986
484,0.000,-0.428,24.555,2.840,3.607,10.423,37.064,-6.603,7.482,-2.895,2.486,11.810,-35.355,2.953,-2.953,0.000,0.000,6,-0.002,0.146,799,1031,1253,926,4.761,10.712
485,0.000,-0.363,24.643,2.884,3.480,10.493,39.475,-6.713,7.350,-2.906,2.441,12.063,-38.163,2.977,-2.977,0.000,0.000,6,-0.002,0.148,798,1031,1253,925,4.028,10.620
486,0.000,-0.297,24.753,2.884,2.970,10.926,41.581,-6.823,7.240,-2.939,2.879,12.355,-40.482,3.002,-3.002,0.000,0.000,6,-0.002,0.152,800,1030,1253,927,3.845,10.620
487,0.000,-0.231,24.862,2.906,1.663,10.668,42.557,-6.932,7.108,-2.950,3.832,12.066,-41.428,3.030,-3.030,0.000,0.000,6,-0.002,0.158,800,1030,1252,927,3.845,10.529
488,0.000,-0.187,24.972,2.950,0.569,9.978,43.229,-7.020,6.976,-2.994,4.294,11.364,-42.557,3.064,-3.064,0.000,0.000,6,-0.002,0.162,800,1030,1253,925,3.571,10.346
489,0.000,-0.165,25.082,2.961,0.506,9.983,43.473,-7.108,6.845,-3.016,3.669,11.312,-43.870,3.101,-3.101,0.000,0.000,6,-0.002,0.164,800,1030,1252,924,3.479,10.437
490,0.000,-0.143,25.170,3.005,0.303,9.676,43.107,-7.174,6.713,-3.060,4.373,11.266,-44.419,3.136,-3.136,0.000,0.000,6,-0.002,0.162,800,1030,1253,925,2.930,10.895
491,0.000,-0.121,25.280,3.027,-0.073,9.365,42.344,-7.262,6.581,-3.082,5.922,11.223,-43.534,3.136,-3.136,0.000,0.000,6,-0.002,0.160,801,1030,1253,925,1.648,10.620
492,0.000,-0.099,25.390,3.060,0.485,9.293,41.733,-7.306,6.471,-3.093,6.628,10.993,-42.557,3.136,-3.136,0.000,0.000,6,-0.002,0.158,801,1030,1253,925,0.549,9.888
493,0.000,-0.077,25.478,3.082,0.870,8.723,40.970,-7.350,6.339,-3.115,6.262,10.905,-41.733,3.136,-3.136,0.000,0.000,6,-0.002,0.156,801,1030,1253,925,0.458,9.979
494,0.000,-0.033,25.588,3.148,1.131,8.561,39.750,-7.394,6.229,-3.126,6.286,10.821,-39.902,3.136,-3.136,0.000,0.000,6,-0.003,0.154,801,1030,1253,925,0.275,9.613
495,0.000,0.000,25.675,3.126,1.553,8.606,39.109,-7.438,6.098,-3.148,6.004,10.548,-37.858,3.136,-3.136,0.000,0.000,6,-0.003,0.152,802,1029,1252,925,0.000,9.339
496,0.000,0.000,25.763,3.126,0.880,8.005,37.949,-7.504,5.988,-3.137,4.816,10.979,-37.308,3.136,-3.136,0.000,0.000,6,-0.002,0.150,802,1029,1252,925,0.458,9.247
497,0.000,0.011,25.873,3.115,0.334,7.447,36.728,-7.570,5.878,-3.126,4.960,11.108,-37.247,3.136,-3.136,0.000,0.000,6,-0.001,0.148,802,1029,1252,925,0.824,8.698
498,0.000,0.033,25.961,3.126,-0.073,7.311,35.569,-7.636,5.746,-3.126,5.434,11.113,-36.698,3.136,-3.136,0.000,0.000,6,-0.003,0.147,802,1028,1253,925,1.099,8.515
499,0.000,0.033,26.049,3.115,-0.588,7.313,34.501,-7.680,5.658,-3.115,5.558,11.199,-35.325,3.136,-3.136,0.000,0.000,6,-0.003,0.147,803,1029,1252,925,1.465,8.606
500,0.000,0.033,26.137,3.126,-0.162,7.091,34.134,-7.724,5.548,-3.137,5.886,11.185,-33.463,3.136,-3.136,0.000,0.000,6,-0.002,0.147,803,1029,1252,925,0.824,7.965
501,0.000,0.055,26.225,3.126,0.188,6.786,33.646,-7.767,5.438,-3.148,5.762,10.797,-31.235,3.136,-3.136,0.000,0.000,6,-0.002,0.148,803,1029,1252,925,0.275,7.416
502,0.000,0.055,26.291,3.126,0.063,6.767,33.005,-7.811,5.350,-3.137,5.403,10.756,-29.526,3.136,-3.136,0.000,0.000,6,-0.002,0.153,804,1029,1252,925,0.000,7.233
503,0.000,0.077,26.379,3.137,0.277,6.794,32.425,-7.855,5.263,-3.137,5.228,10.869,-27.939,3.136,-3.136,0.000,0.000,6,-0.002,0.161,803,1030,1253,925,-0.549,7.233
504,0.000,0.099,26.466,3.137,0.238,6.564,31.968,-7.899,5.175,-3.137,5.127,10.790,-25.681,3.136,-3.136,0.000,0.000,6,-0.002,0.167,804,1029,1252,925,-0.092,7.050
505,0.000,0.099,26.554,3.126,-0.056,6.157,31.083,-7.943,5.087,-3.126,4.938,10.703,-23.087,3.136,-3.136,0.000,0.000,6,-0.002,0.168,805,1028,1252,924,0.183,6.775
506,0.000,0.121,26.620,3.126,-0.174,6.095,30.167,-7.965,5.021,-3.148,4.617,10.627,-20.798,3.136,-3.136,0.000,0.000,6,-0.002,0.167,805,1028,1252,924,0.000,6.683
507,0.000,0.099,26.708,3.126,-0.439,6.147,28.946,-8.009,4.955,-3.126,5.142,10.521,-18.173,3.136,-3.136,0.000,0.000,6,-0.002,0.167,807,1028,1252,924,0.275,6.775
508,0.000,0.099,26.774,3.126,-0.803,5.977,27.054,-8.009,4.911,-3.115,5.585,10.079,-14.572,3.136,-3.136,0.000,0.000,6,-0.001,0.171,805,1029,1252,924,0.183,6.500
509,0.000,0.077,26.862,3.137,-1.050,6.042,24.979,-8.031,4.867,-3.148,5.280,9.801,-10.513,3.136,-3.136,0.000,0.000,6,-0.001,0.178,806,1028,1253,925,0.000,6.134
510,0.000,0.055,26.928,3.148,-0.968,6.296,23.331,-8.031,4.823,-3.137,4.888,9.803,-6.546,3.136,-3.136,0.000,0.000,6,-0.001,0.188,806,1028,1252,924,-0.092,6.043
511,0.000,0.055,27.016,3.148,-0.880,6.415,21.988,-8.053,4.801,-3.115,4.378,9.581,-2.945,3.136,-3.136,0.000,0.000,6,-0.001,0.201,806,1028,1252,924,-0.366,6.134
512,0.000,0.033,27.082,3.126,-1.148,6.628,20.066,-8.075,4.757,-3.126,3.763,9.418,0.137,3.136,-3.136,0.000,0.000,6,-0.001,0.212,807,1028,1252,924,-0.732,5.951
513,0.000,0.011,27.148,3.115,-1.474,6.863,18.204,-8.097,4.735,-3.137,3.111,9.463,2.884,3.136,-3.136,0.000,0.000,6,-0.001,0.216,807,1028,1252,924,-1.007,6.043
514,0.000,0.000,27.192,3.126,-1.282,6.985,16.709,-8.119,4.735,-3.137,2.451,9.487,5.203,3.136,-3.136,0.000,0.000,6,-0.001,0.215,807,1028,1250,924,-0.916,6.226
515,0.000,-0.011,27.257,3.148,-0.897,7.184,14.908,-8.163,4.713,-3.126,1.914,9.502,7.187,3.136,-3.136,0.000,0.000,6,-0.001,0.216,808,1028,1252,924,-0.824,6.409
516,0.000,-0.033,27.301,3.137,-0.782,7.902,12.680,-8.229,4.691,-3.126,1.615,9.444,8.682,3.136,-3.136,0.000,0.000,6,-0.001,0.216,808,1028,1253,924,-1.099,6.592
517,0.000,-0.033,27.367,3.104,-0.401,8.106,10.941,-8.273,4.691,-3.126,1.409,9.396,10.117,3.136,-3.136,0.000,0.000,6,-0.001,0.213,808,1028,1253,924,-1.465,6.775
518,0.000,-0.033,27.411,3.148,0.181,8.345,9.140,-8.317,4.691,-3.137,1.203,9.310,11.246,3.136,-3.136,0.000,0.000,6,-0.001,0.210,808,1028,1250,924,-1.282,6.958
519,0.000,-0.033,27.455,3.137,0.885,8.704,7.736,-8.383,4.691,-3.126,0.889,9.104,12.100,3.136,-3.136,0.000,0.000,6,-0.001,0.208,810,1027,1251,924,-0.824,7.141
520,0.000,-0.011,27.499,3.126,1.119,8.948,6.363,-8.449,4.691,-3.115,0.619,8.881,12.863,3.136,-3.136,0.000,0.000,6,-0.001,0.205,809,1028,1252,923,-0.732,7.874
521,0.000,0.000,27.521,3.126,1.191,9.027,4.959,-8.515,4.691,-3.126,0.463,8.702,13.443,3.136,-3.136,0.000,0.000,6,-0.001,0.202,810,1027,1252,924,-0.366,8.057
522,0.000,0.000,27.565,3.126,1.373,9.095,3.586,-8.580,4.691,-3.115,0.224,8.604,13.413,3.136,-3.136,0.000,0.000,6,-0.002,0.200,810,1028,1251,925,0.092,8.331
523,0.000,0.000,27.587,3.148,1.476,9.229,2.152,-8.646,4.691,-3.115,-0.255,8.656,12.680,3.136,-3.136,0.000,0.000,6,-0.002,0.198,810,1027,1251,923,0.824,8.698
524,0.000,0.011,27.609,3.137,1.512,9.286,0.473,-8.734,4.691,-3.126,-0.300,8.649,11.795,3.136,-3.136,0.000,0.000,6,-0.002,0.195,811,1027,1251,923,1.099,8.881
525,0.000,0.033,27.653,3.115,1.835,9.341,-1.236,-8.822,4.691,-3.126,-0.205,8.570,11.002,3.136,-3.136,0.000,0.000,6,-0.002,0.194,811,1026,1251,924,1.190,8.972
526,0.000,0.055,27.653,3.126,2.415,9.516,-2.609,-8.888,4.691,-3.126,-0.511,8.532,10.056,3.136,-3.136,0.000,0.000,6,-0.003,0.194,812,1027,1252,924,1.373,9.064
527,0.000,0.099,27.675,3.115,2.913,9.631,-3.769,-8.976,4.691,-3.148,-0.772,8.355,9.140,3.136,-3.136,0.000,0.000,6,-0.003,0.192,812,1027,1252,923,1.465,9.155
528,0.000,0.143,27.697,3.148,3.329,9.743,-4.593,-9.064,4.691,-3.137,-0.877,8.149,8.042,3.136,-3.136,0.000,0.000,6,-0.002,0.190,812,1027,1251,921,1.465,9.247
529,0.000,0.187,27.719,3.126,3.497,9.753,-5.447,-9.152,4.691,-3.115,-0.913,7.996,6.790,3.136,-3.136,0.000,0.000,6,-0.002,0.187,812,1026,1252,923,1.831,9.339
530,0.000,0.231,27.741,3.126,3.549,9.679,-6.271,-9.240,4.691,-3.115,-1.031,7.926,5.844,3.136,-3.136,0.000,0.000,6,-0.003,0.185,814,1027,1251,924,2.380,9.430
531,0.000,0.275,27.741,3.137,3.593,9.683,-6.882,-9.328,4.691,-3.137,-1.036,7.821,4.837,3.136,-3.136,0.000,0.000,6,-0.002,0.182,814,1027,1252,923,2.838,9.613
532,0.000,0.319,27.763,3.137,3.602,9.681,-7.340,-9.415,4.691,-3.148,-1.122,7.742,3.799,3.136,-3.136,0.000,0.000,6,-0.002,0.180,814,1027,1251,923,3.296,9.705
533,0.000,0.363,27.785,3.104,3.648,9.681,-7.797,-9.503,4.691,-3.126,-1.141,7.739,2.792,3.136,-3.136,0.000,0.000,6,-0.002,0.178,815,1026,1251,923,3.479,9.705
534,0.000,0.428,27.785,3.126,3.923,9.748,-8.408,-9.591,4.691,-3.126,-1.184,7.706,1.724,3.136,-3.136,0.000,0.000,6,-0.002,0.176,816,1026,1251,922,3.479,9.613
535,0.000,0.472,27.807,3.115,4.320,9.877,-8.621,-9.679,4.691,-3.126,-1.244,7.670,0.839,3.136,-3.136,0.000,0.000,6,-0.002,0.176,816,1026,1251,923,3.571,9.613
536,0.000,0.538,27.829,3.126,4.495,9.875,-8.804,-9.767,4.691,-3.126,-1.246,7.517,-0.015,3.136,-3.136,0.000,0.000,6,-0.001,0.176,816,1026,1251,923,3.571,9.613
537,0.000,0.604,27.829,3.115,4.739,9.937,-8.682,-9.855,4.691,-3.126,-1.153,7.533,-0.748,3.136,-3.136,0.000,0.000,6,-0.002,0.176,816,1026,1251,923,3.571,9.613
538,0.000,0.670,27.851,3.126,4.833,10.002,-8.713,-9.943,4.691,-3.115,-1.141,7.526,-1.419,3.136,-3.136,0.000,0.000,6,-0.002,0.178,817,1026,1251,922,3.845,9.705
539,0.000,0.736,27.873,3.148,4.756,9.971,-8.988,-10.031,4.691,-3.126,-1.047,7.531,-2.243,3.136,-3.136,0.000,0.000,6,-0.002,0.179,818,1026,1251,922,4.303,9.796
540,0.000,0.802,27.873,3.126,4.725,10.045,-8.927,-10.097,4.691,-3.115,-1.002,7.617,-3.037,3.136,-3.136,0.000,0.000,6,-0.002,0.180,818,1026,1251,922,4.486,9.796
541,0.000,0.868,27.895,3.137,4.763,10.047,-8.621,-10.184,4.691,-3.104,-0.882,7.658,-3.677,3.136,-3.136,0.000,0.000,6,-0.002,0.179,818,1026,1251,922,4.669,9.888
542,0.000,0.934,27.917,3.104,4.895,10.088,-8.530,-10.250,4.691,-3.126,-0.657,7.653,-4.135,3.136,-3.136,0.000,0.000,6,-0.001,0.178,819,1026,1251,922,4.761,9.979
543,0.000,1.000,27.939,3.115,4.876,10.143,-8.347,-10.316,4.691,-3.126,-0.581,7.732,-4.623,3.136,-3.136,0.000,0.000,6,-0.001,0.178,819,1025,1251,922,4.669,9.888
544,0.000,1.066,27.939,3.126,4.869,10.134,-8.103,-10.382,4.691,-3.115,-0.394,7.792,-5.264,3.136,-3.136,0.000,0.000,6,-0.001,0.178,820,1026,1251,922,4.669,9.979
545,0.000,1.132,27.961,3.137,4.912,10.143,-8.011,-10.448,4.691,-3.126,-0.183,7.845,-5.692,3.136,-3.136,0.000,0.000,6,-0.001,0.178,820,1025,1250,922,4.761,9.979
546,0.000,1.198,27.983,3.137,4.823,10.181,-7.858,-10.492,4.691,-3.126,-0.080,7.926,-6.027,3.136,-3.136,0.000,0.000,6,-0.001,0.179,823,1025,1250,922,4.852,10.071
547,0.000,1.263,28.005,3.148,4.761,10.160,-7.706,-10.536,4.691,-3.137,0.114,8.005,-6.485,3.136,-3.136,0.000,0.000,6,-0.001,0.180,821,1025,1251,922,4.852,10.071
548,0.000,1.329,28.027,3.126,4.682,10.074,-7.706,-10.580,4.691,-3.126,0.408,8.079,-6.729,3.136,-3.136,0.000,0.000,6,-0.001,0.182,822,1025,1252,922,4.852,10.071
549,0.000,1.395,28.027,3.126,4.555,10.014,-7.767,-10.624,4.691,-3.137,0.643,8.142,-7.095,3.136,-3.136,0.000,0.000,6,-0.001,0.185,822,1025,1251,922,4.852,10.071
550,0.000,1.439,28.049,3.137,4.529,9.997,-7.767,-10.668,4.691,-3.126,0.758,8.230,-7.401,3.136,-3.136,0.000,0.000,6,-0.000,0.189,823,1025,1250,921,4.761,10.163
551,0.000,1.505,28.070,3.148,4.378,9.868,-7.858,-10.690,4.691,-3.126,0.880,8.343,-7.492,3.136,-3.136,0.000,0.000,6,-0.000,0.192,823,1025,1251,921,4.761,10.071
552,0.000,1.571,28.092,3.126,4.306,9.820,-7.950,-10.712,4.691,-3.126,1.069,8.419,-7.706,3.136,-3.136,0.000,0.000,6,-0.001,0.190,824,1025,1251,921,4.669,10.071
553,0.000,1.615,28.092,3.104,4.304,9.705,-7.889,-10.734,4.691,-3.104,1.186,8.453,-7.858,3.136,-3.136,0.000,0.000,6,-0.000,0.187,824,1025,1250,922,4.486,9.979
554,0.000,1.681,28.114,3.126,4.191,9.631,-7.736,-10.756,4.691,-3.126,1.328,8.501,-7.950,3.136,-3.136,0.000,0.000,6,-0.001,0.185,824,1025,1250,922,4.486,9.979
555,0.000,1.725,28.136,3.115,4.069,9.542,-7.767,-10.778,4.691,-3.115,1.486,8.520,-8.194,3.136,-3.136,0.000,0.000,6,-0.001,0.183,825,1025,1252,921,4.303,9.796
556,0.000,1.791,28.136,3.115,3.992,9.434,-7.950,-10.800,4.691,-3.137,1.548,8.527,-8.194,3.136,-3.136,0.000,0.000,6,-0.001,0.181,825,1025,1251,921,4.303,9.796
557,0.000,1.835,28.158,3.126,3.954,9.423,-7.889,-10.800,4.691,-3.104,1.658,8.594,-8.377,3.136,-3.136,0.000,0.000,6,-0.001,0.181,825,1025,1249,922,4.303,9.705
558,0.000,1.901,28.180,3.148,3.748,9.372,-7.889,-10.822,4.691,-3.137,1.682,8.628,-8.377,3.136,-3.136,0.000,0.000,6,-0.000,0.183,827,1024,1250,922,4.120,9.613
559,0.000,1.945,28.202,3.137,3.633,9.334,-7.706,-10.844,4.691,-3.126,1.869,8.630,-8.286,3.136,-3.136,0.000,0.000,6,-0.000,0.188,826,1024,1251,920,4.028,9.522
560,0.000,1.989,28.224,3.126,3.681,9.298,-7.462,-10.844,4.691,-3.137,2.106,8.709,-8.377,3.136,-3.136,0.000,0.000,6,-0.000,0.195,826,1024,1250,920,3.937,9.430
561,0.000,2.054,28.246,3.115,3.552,9.238,-7.370,-10.844,4.691,-3.137,2.199,8.740,-8.225,3.136,-3.136,0.000,0.000,6,-0.000,0.198,827,1025,1250,921,3.937,9.339
562,0.000,2.098,28.268,3.126,3.413,9.257,-7.187,-10.844,4.691,-3.137,2.395,8.673,-7.919,3.136,-3.136,0.000,0.000,6,-0.000,0.198,827,1024,1251,921,3.662,9.339
563,0.000,2.142,28.290,3.137,3.229,9.195,-7.126,-10.844,4.669,-3.115,2.474,8.652,-7.919,3.136,-3.136,0.000,0.000,6,-0.000,0.196,827,1024,1250,920,3.571,9.247
564,0.000,2.208,28.312,3.126,3.030,9.066,-7.095,-10.844,4.669,-3.126,2.479,8.697,-7.889,3.136,-3.136,0.000,0.000,6,-0.000,0.193,828,1023,1250,921,3.662,9.247
565,0.000,2.252,28.334,3.126,2.984,9.083,-7.034,-10.844,4.669,-3.126,2.613,8.810,-7.889,3.136,-3.136,0.000,0.000,6,-0.000,0.191,828,1024,1251,922,3.479,9.155
566,0.000,2.296,28.356,3.126,2.807,9.121,-7.187,-10.822,4.669,-3.137,2.747,8.860,-7.828,3.136,-3.136,0.000,0.000,6,-0.000,0.188,829,1024,1251,920,3.388,9.247
567,0.000,2.318,28.378,3.126,2.647,9.097,-7.309,-10.822,4.669,-3.137,2.834,8.836,-7.675,3.136,-3.136,0.000,0.000,6,-0.000,0.186,829,1024,1250,920,3.204,9.155
568,0.000,2.362,28.400,3.115,2.716,9.106,-7.584,-10.822,4.669,-3.115,2.965,8.812,-7.858,3.136,-3.136,0.000,0.000,6,0.000,0.185,828,1024,1250,920,3.021,9.064
569,0.000,2.406,28.422,3.126,2.743,9.130,-7.675,-10.800,4.669,-3.126,3.018,8.834,-7.919,3.136,-3.136,0.000,0.000,6,-0.000,0.183,830,1023,1250,922,2.930,9.064
570,0.000,2.450,28.444,3.115,2.714,9.135,-7.736,-10.800,4.669,-3.126,3.066,8.862,-7.828,3.136,-3.136,0.000,0.000,6,0.000,0.181,830,1024,1250,921,2.747,9.064
571,0.000,2.494,28.466,3.126,2.628,9.049,-7.767,-10.778,4.669,-3.126,3.130,8.867,-7.889,3.136,-3.136,0.000,0.000,6,0.000,0.178,831,1023,1250,921,2.564,9.064
572,0.000,2.538,28.488,3.104,2.553,9.004,-7.736,-10.778,4.669,-3.115,3.219,8.824,-7.980,3.136,-3.136,0.000,0.000,6,-0.000,0.177,832,1023,1250,920,2.655,9.064
573,0.000,2.582,28.532,3.137,2.424,8.968,-7.736,-10.756,4.669,-3.126,3.370,8.810,-7.980,3.136,-3.136,0.000,0.000,6,-0.000,0.174,832,1023,1250,920,2.655,9.064
574,0.000,2.626,28.554,3.148,2.281,8.874,-7.919,-10.734,4.669,-3.137,3.456,8.855,-8.011,3.136,-3.136,0.000,0.000,6,0.000,0.172,832,1023,1250,920,2.655,9.064
575,0.000,2.648,28.576,3.115,2.292,8.838,-8.072,-10.712,4.669,-3.115,3.509,8.869,-8.042,3.136,-3.136,0.000,0.000,6,0.001,0.169,832,1023,1250,920,2.564,8.972
576,0.000,2.692,28.598,3.115,2.271,8.774,-8.438,-10.690,4.669,-3.126,3.547,8.860,-8.164,3.136,-3.136,0.000,0.000,6,0.001,0.167,833,1023,1251,920,2.472,8.972
577,0.000,2.714,28.620,3.126,2.204,8.728,-8.682,-10.668,4.669,-3.115,3.662,8.850,-7.950,3.136,-3.136,0.000,0.000,6,0.001,0.165,834,1022,1251,920,2.380,8.881
578,0.000,2.758,28.664,3.115,2.237,8.745,-8.743,-10.646,4.669,-3.137,3.585,8.178,-8.194,3.136,-3.136,0.000,0.000,6,0.002,0.163,834,1023,1251,920,2.197,8.789
579,0.000,2.802,28.686,3.115,2.290,8.644,-8.682,-10.624,4.669,-3.115,3.341,8.996,-7.950,3.136,-3.136,0.000,0.000,6,0.003,0.161,834,1023,1251,920,2.289,8.789
580,0.000,2.846,28.708,3.104,2.419,8.453,-8.957,-10.624,4.669,-3.126,3.684,9.638,-8.133,3.136,-3.136,0.000,0.000,6,0.004,0.159,835,1023,1251,919,2.197,8.698
581,0.000,2.889,28.730,3.115,2.012,8.283,-8.865,-10.580,4.669,-3.126,4.694,8.817,-8.072,3.136,-3.136,0.000,0.000,6,0.005,0.158,835,1023,1252,920,2.197,8.698
582,0.000,2.911,28.774,3.126,1.718,8.508,-8.774,-10.558,4.669,-3.126,4.174,8.836,-8.011,3.136,-3.136,0.000,0.000,6,0.006,0.158,835,1023,1251,920,2.197,8.698
583,0.000,2.955,28.796,3.115,2.137,8.206,-8.438,-10.536,4.669,-3.126,3.772,9.219,-8.011,3.136,-3.136,0.000,0.000,6,0.007,0.160,836,1023,1251,920,2.289,8.606
584,0.000,2.999,28.818,3.126,1.919,8.266,-8.255,-10.514,4.669,-3.126,3.990,8.994,-8.164,3.136,-3.136,0.000,0.000,6,0.008,0.163,837,1023,1251,920,2.380,8.423
585,0.000,3.043,28.862,3.126,2.108,8.721,-8.591,-10.470,4.669,-3.104,3.930,8.826,-8.255,3.136,-3.136,0.000,0.000,6,0.009,0.165,839,1023,1251,919,1.923,8.240
586,0.000,3.065,28.883,3.148,1.814,8.324,-9.262,-10.448,4.647,-3.115,4.158,9.085,-8.316,3.136,-3.136,0.000,0.000,6,0.009,0.168,837,1023,1252,920,1.648,8.423
587,0.000,3.109,28.905,3.126,1.715,8.173,-9.812,-10.426,4.647,-3.137,3.889,9.162,-8.347,3.136,-3.136,0.000,0.000,6,0.010,0.174,838,1022,1252,919,2.106,8.148
588,0.000,3.131,28.949,3.115,1.244,8.158,-10.208,-10.404,4.647,-3.126,4.112,8.841,-8.499,3.136,-3.136,0.000,0.000,6,0.010,0.181,838,1023,1251,920,1.831,8.240
589,0.000,3.153,28.971,3.104,1.421,8.144,-10.849,-10.382,4.647,-3.126,4.093,8.824,-8.774,3.136,-3.136,0.000,0.000,6,0.010,0.184,839,1022,1251,919,2.106,8.698
590,0.000,3.175,28.993,3.126,1.586,8.027,-11.643,-10.360,4.647,-3.126,4.126,9.044,-9.049,3.136,-3.136,0.000,0.000,6,0.009,0.183,839,1022,1252,920,1.740,8.240
591,0.000,3.219,29.015,3.115,1.794,8.075,-12.497,-10.338,4.647,-3.126,4.165,8.989,-9.140,3.136,-3.136,0.000,0.000,6,0.009,0.182,840,1022,1251,920,1.648,8.148
592,0.000,3.241,29.059,3.126,1.735,8.058,-13.046,-10.294,4.647,-3.126,4.091,8.910,-9.384,3.136,-3.136,0.000,0.000,6,0.009,0.180,840,1022,1250,919,1.190,8.148
593,0.000,3.285,29.081,3.126,1.555,8.010,-13.657,-10.272,4.625,-3.115,3.997,8.860,-9.689,3.136,-3.136,0.000,0.000,6,0.008,0.179,840,1022,1250,919,1.373,8.057
594,0.000,3.307,29.103,3.126,1.627,7.945,-14.176,-10.250,4.625,-3.115,3.652,8.711,-9.995,3.136,-3.136,0.000,0.000,6,0.008,0.177,841,1022,1252,919,1.556,7.965
595,0.000,3.351,29.125,3.137,1.617,7.847,-14.725,-10.228,4.625,-3.137,3.940,8.740,-10.239,3.136,-3.136,0.000,0.000,6,0.007,0.175,842,1022,1251,919,1.740,8.057
596,0.000,3.373,29.147,3.115,1.536,7.780,-15.183,-10.206,4.625,-3.126,4.119,8.972,-10.605,3.136,-3.136,0.000,0.000,6,0.007,0.172,842,1022,1250,920,1.648,8.057
597,0.000,3.395,29.169,3.126,1.414,7.878,-15.702,-10.184,4.603,-3.115,4.004,8.908,-10.849,3.136,-3.136,0.000,0.000,6,0.006,0.170,844,1022,1249,919,1.465,7.965
598,0.000,3.439,29.191,3.115,1.517,7.782,-16.251,-10.163,4.603,-3.115,4.035,8.802,-11.337,3.136,-3.136,0.000,0.000,6,0.005,0.168,843,1022,1250,919,1.556,7.874
599,0.000,3.461,29.213,3.126,1.699,7.759,-16.373,-10.141,4.603,-3.137,3.784,8.867,-11.673,3.136,-3.136,0.000,0.000,6,0.005,0.166,843,1022,1250,919,1.556,7.782
600,0.000,3.505,29.235,3.126,1.660,7.890,-16.648,-10.119,4.581,-3.137,3.624,8.798,-12.009,3.136,-3.136,0.000,0.000,6,0.004,0.165,843,1022,1250,920,1.465,7.691
601,0.000,3.549,29.279,3.126,1.577,7.917,-17.105,-10.119,4.581,-3.115,3.724,8.702,-12.345,3.136,-3.136,0.000,0.000,6,0.004,0.165,844,1022,1250,919,1.373,7.874
602,0.000,3.571,29.301,3.126,1.634,7.924,-17.716,-10.097,4.559,-3.126,3.772,8.776,-12.924,3.136,-3.136,0.000,0.000,6,0.003,0.165,844,1022,1250,918,1.465,7.782
603,0.000,3.615,29.323,3.137,1.648,7.823,-18.082,-10.075,4.559,-3.137,3.633,8.860,-13.565,3.136,-3.136,0.000,0.000,6,0.003,0.166,845,1021,1250,919,1.648,7.691
604,0.000,3.659,29.345,3.115,1.572,7.919,-18.204,-10.053,4.537,-3.126,3.705,8.795,-14.176,3.136,-3.136,0.000,0.000,6,0.002,0.170,845,1022,1250,920,1.648,7.874
605,0.000,3.702,29.389,3.115,1.553,8.067,-18.112,-10.053,4.537,-3.137,3.681,8.733,-14.786,3.136,-3.136,0.000,0.000,6,0.001,0.170,846,1021,1250,918,1.556,7.874
606,0.000,3.746,29.411,3.126,1.658,8.103,-18.173,-10.031,4.515,-3.126,3.676,8.769,-15.244,3.136,-3.136,0.000,0.000,6,0.002,0.168,847,1021,1249,918,1.556,7.874
607,0.000,3.790,29.455,3.115,1.718,8.154,-18.296,-10.031,4.493,-3.137,3.729,8.769,-15.610,3.136,-3.136,0.000,0.000,6,0.001,0.165,845,1022,1250,918,1.648,7.782
608,0.000,3.834,29.499,3.126,1.646,8.314,-18.479,-10.009,4.472,-3.126,3.825,8.790,-16.007,3.136,-3.136,0.000,0.000,6,0.000,0.164,847,1021,1250,919,1.556,7.874
609,0.000,3.878,29.521,3.115,1.567,8.395,-18.357,-10.009,4.450,-3.137,3.935,8.848,-16.434,3.136,-3.136,0.000,0.000,6,0.000,0.164,848,1021,1249,919,1.465,8.057
610,0.000,3.922,29.565,3.137,1.452,8.383,-18.540,-9.987,4.428,-3.126,3.954,8.855,-16.922,3.136,-3.136,0.000,0.000,6,0.001,0.166,848,1022,1250,919,1.648,8.057
611,0.000,3.966,29.587,3.137,1.270,8.371,-18.997,-9.965,4.428,-3.126,3.945,8.867,-17.380,3.136,-3.136,0.000,0.000,6,0.001,0.166,849,1021,1249,918,1.648,8.148
612,0.000,4.010,29.631,3.126,1.103,8.316,-19.760,-9.965,4.406,-3.137,4.028,8.874,-17.685,3.136,-3.136,0.000,0.000,6,0.001,0.168,850,1021,1249,918,1.556,8.240
613,0.000,4.032,29.653,3.115,1.040,8.309,-20.523,-9.943,4.362,-3.104,4.076,8.889,-18.021,3.136,-3.136,0.000,0.000,6,0.002,0.170,850,1021,1249,918,1.556,8.331
614,0.000,4.076,29.696,3.115,1.062,8.304,-21.378,-9.921,4.362,-3.115,3.995,8.932,-18.509,3.136,-3.136,0.000,0.000,6,0.003,0.169,851,1021,1249,918,1.373,8.331
615,0.000,4.098,29.718,3.115,1.093,8.245,-22.354,-9.921,4.340,-3.148,4.047,8.980,-18.936,3.136,-3.136,0.000,0.000,6,0.003,0.168,850,1021,1249,918,1.190,8.331
616,0.000,4.120,29.762,3.126,1.203,8.182,-23.117,-9.899,4.296,-3.126,4.021,9.030,-19.425,3.136,-3.136,0.000,0.000,6,0.003,0.165,851,1021,1248,918,1.099,8.240
617,0.000,4.164,29.784,3.126,1.392,8.134,-23.575,-9.899,4.274,-3.126,4.007,9.042,-19.852,3.136,-3.136,0.000,0.000,6,0.004,0.163,852,1021,1248,918,1.007,8.240
618,0.000,4.208,29.806,3.126,1.483,8.043,-23.758,-9.877,4.252,-3.115,3.933,9.049,-20.218,3.136,-3.136,0.000,0.000,6,0.005,0.161,852,1021,1248,918,1.007,8.240
619,0.000,4.252,29.850,3.126,1.560,7.957,-24.002,-9.877,4.230,-3.148,3.609,9.176,-20.737,3.136,-3.136,0.000,0.000,6,0.005,0.159,853,1021,1247,918,1.007,8.240
620,0.000,4.296,29.872,3.115,1.553,7.897,-24.125,-9.877,4.208,-3.115,3.672,9.183,-21.378,3.136,-3.136,0.000,0.000,6,0.005,0.160,853,1022,1248,918,1.190,8.148
621,0.000,4.362,29.916,3.104,1.605,7.842,-24.155,-9.877,4.164,-3.115,3.523,9.260,-21.958,3.136,-3.136,0.000,0.000,6,0.005,0.164,854,1020,1247,918,1.373,8.057
622,0.000,4.406,29.960,3.126,1.615,7.797,-24.033,-9.877,4.142,-3.093,3.624,9.284,-22.293,3.136,-3.136,0.000,0.000,6,0.005,0.163,855,1021,1247,918,1.465,7.965
623,0.000,4.472,30.004,3.104,1.713,7.751,-23.728,-9.877,4.120,-3.115,3.830,9.221,-22.507,3.136,-3.136,0.000,0.000,6,0.005,0.162,856,1021,1247,918,1.556,7.874
624,0.000,4.537,30.026,3.126,1.701,7.759,-23.484,-9.877,4.076,-3.126,3.870,9.274,-22.629,3.136,-3.136,0.000,0.000,6,0.005,0.159,858,1021,1246,918,1.465,7.874
625,0.000,4.581,30.070,3.137,1.605,7.735,-23.178,-9.877,4.054,-3.126,3.731,9.322,-22.690,3.136,-3.136,0.000,0.000,6,0.004,0.157,856,1021,1247,918,1.556,7.782
626,0.000,4.647,30.136,3.126,1.385,7.658,-23.239,-9.877,4.010,-3.126,3.628,9.363,-22.873,3.136,-3.136,0.000,0.000,6,0.005,0.154,856,1021,1247,918,1.556,7.782
627,0.000,4.713,30.180,3.126,1.407,7.737,-23.362,-9.877,3.988,-3.126,3.523,9.518,-23.423,3.136,-3.136,0.000,0.000,6,0.004,0.153,857,1021,1246,919,1.648,7.691
628,0.000,4.779,30.224,3.126,1.593,7.893,-22.965,-9.899,3.944,-3.115,3.375,9.669,-24.216,3.136,-3.136,0.000,0.000,6,0.004,0.151,858,1021,1246,919,1.648,7.691
629,0.000,4.845,30.290,3.115,1.531,7.924,-22.324,-9.899,3.900,-3.126,3.530,9.707,-25.132,3.136,-3.136,0.000,0.000,6,0.004,0.149,858,1020,1247,919,1.556,7.691
630,0.000,4.911,30.356,3.137,1.397,7.948,-22.019,-9.921,3.878,-3.115,3.684,9.731,-25.620,3.136,-3.136,0.000,0.000,6,0.004,0.147,858,1021,1246,919,1.373,7.599
631,0.000,4.977,30.400,3.126,1.416,8.084,-21.805,-9.921,3.834,-3.104,3.669,9.815,-26.291,3.136,-3.136,0.000,0.000,6,0.003,0.150,858,1020,1246,919,1.373,7.691
632,0.000,5.065,30.466,3.115,1.543,8.204,-21.622,-9.943,3.790,-3.104,3.645,9.875,-27.115,3.136,-3.136,0.000,0.000,6,0.003,0.154,859,1020,1247,919,1.556,7.874
633,0.000,5.131,30.531,3.126,1.294,8.264,-21.561,-9.965,3.724,-3.115,3.734,9.827,-27.695,3.136,-3.136,0.000,0.000,6,0.003,0.155,860,1020,1247,919,1.465,7.874
634,0.000,5.197,30.597,3.115,1.083,8.429,-21.530,-9.965,3.680,-3.137,3.791,9.851,-28.397,3.136,-3.136,0.000,0.000,6,0.003,0.152,860,1020,1247,919,1.373,7.874
635,0.000,5.263,30.663,3.115,0.765,8.309,-21.836,-9.987,3.637,-3.126,3.839,9.956,-29.282,3.136,-3.136,0.000,0.000,6,0.003,0.150,860,1020,1245,921,1.373,8.057
636,0.000,5.328,30.729,3.115,0.712,8.087,-22.293,-9.987,3.593,-3.115,4.062,9.921,-29.740,3.136,-3.136,0.000,0.000,6,0.003,0.150,862,1020,1245,921,1.465,8.148
637,0.000,5.372,30.795,3.137,1.215,8.175,-22.324,-10.009,3.549,-3.115,4.170,9.976,-30.014,3.136,-3.136,0.000,0.000,6,0.003,0.152,862,1020,1246,919,1.282,8.240
638,0.000,5.460,30.861,3.115,1.287,8.194,-22.232,-10.009,3.505,-3.126,4.160,9.983,-30.411,3.136,-3.136,0.000,0.000,6,0.002,0.154,862,1020,1246,920,1.007,8.423
639,0.000,5.526,30.927,3.137,1.349,8.108,-22.141,-10.031,3.439,-3.104,4.143,9.834,-30.594,3.136,-3.136,0.000,0.000,6,0.002,0.155,862,1020,1246,921,0.732,8.240
640,0.000,5.614,30.993,3.115,1.627,8.079,-21.714,-10.031,3.395,-3.137,4.244,9.779,-30.625,3.136,-3.136,0.000,0.000,6,0.002,0.159,863,1020,1246,921,0.641,8.057
641,0.000,5.680,31.059,3.115,1.414,7.818,-21.714,-10.031,3.351,-3.126,4.639,9.748,-30.076,3.136,-3.136,0.000,0.000,6,0.002,0.162,862,1020,1246,920,1.190,8.148
642,0.000,5.768,31.125,3.104,1.086,7.545,-21.836,-10.009,3.307,-3.126,4.984,9.724,-29.221,3.136,-3.136,0.000,0.000,6,0.002,0.161,864,1020,1245,921,1.282,8.148
643,0.000,5.834,31.191,3.126,1.033,7.454,-22.141,-10.009,3.285,-3.115,4.866,9.813,-28.580,3.136,-3.136,0.000,0.000,6,0.001,0.160,864,1020,1245,922,1.282,8.057
644,0.000,5.900,31.257,3.115,0.686,7.258,-22.538,-10.009,3.241,-3.126,4.608,9.868,-27.878,3.136,-3.136,0.000,0.000,6,0.001,0.158,865,1020,1245,920,1.556,8.057
645,0.000,5.966,31.344,3.126,0.442,7.201,-23.117,-10.009,3.197,-3.126,4.308,9.923,-27.390,3.136,-3.136,0.000,0.000,6,0.001,0.156,865,1020,1245,920,1.373,7.782
646,0.000,6.010,31.410,3.126,0.485,7.098,-23.636,-10.009,3.153,-3.126,3.918,10.093,-27.115,3.136,-3.136,0.000,0.000,6,0.001,0.154,864,1020,1245,921,1.007,7.507
647,0.000,6.076,31.476,3.115,0.844,6.916,-23.819,-10.009,3.131,-3.126,3.717,10.189,-27.115,3.136,-3.136,0.000,0.000,6,0.001,0.151,866,1020,1244,921,1.007,7.416
648,0.000,6.163,31.542,3.115,1.414,7.047,-23.667,-10.031,3.087,-3.126,3.686,10.251,-27.054,3.136,-3.136,0.000,0.000,6,0.001,0.149,867,1020,1245,921,0.641,7.233
649,0.000,6.251,31.608,3.115,1.648,7.052,-23.606,-10.031,3.043,-3.126,3.808,10.292,-26.932,3.136,-3.136,0.000,0.000,6,0.002,0.148,867,1020,1245,921,0.366,7.141
650,0.000,6.339,31.674,3.115,1.454,6.897,-23.880,-10.053,2.999,-3.126,4.110,10.225,-26.352,3.136,-3.136,0.000,0.000,6,0.001,0.146,867,1020,1244,921,0.458,7.050
651,0.000,6.427,31.740,3.148,1.373,6.911,-24.247,-10.053,2.977,-3.126,4.220,10.237,-25.834,3.136,-3.136,0.000,0.000,6,0.001,0.145,868,1020,1244,921,0.824,6.867
652,0.000,6.515,31.828,3.115,1.275,6.875,-24.674,-10.053,2.933,-3.137,4.047,10.330,-25.284,3.136,-3.136,0.000,0.000,6,0.002,0.143,868,1020,1244,921,1.373,6.958
653,0.000,6.581,31.894,3.126,0.729,6.854,-25.376,-10.075,2.889,-3.115,3.830,10.299,-25.071,3.136,-3.136,0.000,0.000,6,0.002,0.141,868,1020,1243,921,1.648,7.050
654,0.000,6.647,31.960,3.126,0.454,6.901,-26.078,-10.075,2.846,-3.115,3.523,10.205,-25.315,3.136,-3.136,0.000,0.000,6,0.002,0.139,868,1020,1244,921,1.373,6.867
655,0.000,6.735,32.048,3.126,0.980,7.100,-26.230,-10.097,2.824,-3.126,3.274,10.167,-25.528,3.136,-3.136,0.000,0.000,6,0.001,0.138,870,1020,1243,922,1.373,6.867
656,0.000,6.823,32.114,3.126,1.749,7.277,-25.956,-10.119,2.780,-3.126,3.219,10.158,-25.498,3.136,-3.136,0.000,0.000,6,0.002,0.136,870,1020,1243,921,1.190,6.867
657,0.000,6.932,32.201,3.137,1.950,7.316,-26.169,-10.141,2.736,-3.126,3.447,9.968,-25.345,3.136,-3.136,0.000,0.000,6,0.002,0.135,871,1020,1242,921,0.641,6.775
658,0.000,7.042,32.267,3.115,2.192,7.433,-25.956,-10.141,2.714,-3.126,3.693,9.904,-25.162,3.136,-3.136,0.000,0.000,6,0.001,0.134,871,1020,1242,921,0.366,6.867
659,0.000,7.152,32.355,3.115,1.854,7.761,-25.467,-10.163,2.670,-3.137,3.583,10.033,-25.040,3.136,-3.136,0.000,0.000,6,0.002,0.135,872,1020,1242,921,0.916,7.050
660,0.000,7.240,32.443,3.115,1.335,7.797,-25.437,-10.184,2.626,-3.137,3.190,9.853,-24.918,3.136,-3.136,0.000,0.000,6,0.002,0.137,872,1019,1242,922,1.740,7.233
661,0.000,7.350,32.531,3.126,1.390,7.785,-25.559,-10.206,2.604,-3.148,3.109,9.865,-24.949,3.136,-3.136,0.000,0.000,6,0.002,0.138,873,1019,1242,922,1.923,7.233
662,0.000,7.460,32.619,3.115,2.125,8.199,-25.101,-10.206,2.560,-3.126,3.425,9.822,-24.735,3.136,-3.136,0.000,0.000,6,0.002,0.139,873,1019,1241,921,2.106,7.416
663,0.000,7.570,32.707,3.104,2.015,8.266,-24.796,-10.228,2.538,-3.115,3.626,9.746,-24.338,3.136,-3.136,0.000,0.000,6,0.002,0.140,875,1019,1241,921,1.831,7.691
664,0.000,7.680,32.795,3.126,1.873,8.280,-24.735,-10.228,2.494,-3.104,3.724,9.741,-24.063,3.136,-3.136,0.000,0.000,6,0.002,0.140,874,1019,1242,922,1.282,7.782
665,0.000,7.789,32.883,3.115,2.319,8.518,-24.582,-10.250,2.472,-3.115,3.669,9.722,-23.667,3.136,-3.136,0.000,0.000,6,0.002,0.137,874,1020,1242,922,1.373,7.782
666,0.000,7.899,32.970,3.115,2.197,8.613,-24.369,-10.250,2.428,-3.126,3.356,9.743,-23.117,3.136,-3.136,0.000,0.000,6,0.002,0.136,874,1019,1241,922,2.106,8.148
667,0.000,8.009,33.058,3.126,2.020,8.628,-24.277,-10.272,2.406,-3.126,3.028,9.832,-22.843,3.136,-3.136,0.000,0.000,6,0.002,0.134,875,1019,1240,921,2.014,8.240
668,0.000,8.119,33.146,3.137,1.945,8.647,-24.552,-10.294,2.362,-3.126,2.884,9.842,-22.843,3.136,-3.136,0.000,0.000,6,0.002,0.135,876,1019,1241,921,1.831,8.240
669,0.000,8.229,33.234,3.115,1.823,8.632,-25.071,-10.316,2.340,-3.126,2.740,9.904,-23.209,3.136,-3.136,0.000,0.000,6,0.002,0.137,876,1019,1241,922,2.289,8.515
670,0.000,8.339,33.322,3.126,2.008,8.716,-25.437,-10.338,2.296,-3.137,2.750,10.069,-23.728,3.136,-3.136,0.000,0.000,6,0.002,0.141,876,1019,1239,921,2.197,8.606
671,0.000,8.449,33.410,3.126,2.427,8.872,-25.467,-10.382,2.252,-3.115,2.776,10.153,-24.369,3.136,-3.136,0.000,0.000,6,0.002,0.144,877,1019,1240,921,2.014,8.606
672,0.000,8.558,33.498,3.148,2.680,8.853,-25.254,-10.404,2.208,-3.126,2.616,10.057,-25.193,3.136,-3.136,0.000,0.000,6,0.003,0.149,877,1019,1242,921,1.923,8.606
673,0.000,8.690,33.586,3.104,3.059,8.984,-24.918,-10.448,2.164,-3.126,2.544,10.071,-26.047,3.136,-3.136,0.000,0.000,6,0.003,0.153,877,1019,1240,921,1.740,8.606
674,0.000,8.800,33.674,3.126,3.221,8.965,-24.643,-10.470,2.142,-3.137,2.532,10.131,-26.932,3.136,-3.136,0.000,0.000,6,0.004,0.155,878,1019,1239,922,1.923,8.698
675,0.000,8.932,33.762,3.115,3.178,8.762,-24.704,-10.514,2.076,-3.126,2.503,9.966,-27.848,3.136,-3.136,0.000,0.000,6,0.005,0.154,880,1019,1239,921,2.380,8.789
676,0.000,9.064,33.849,3.115,2.960,8.628,-25.010,-10.536,2.033,-3.137,3.918,9.391,-27.573,3.136,-3.136,0.000,0.000,6,0.006,0.152,879,1019,1239,921,2.655,8.789
677,0.000,9.174,33.915,3.126,2.668,8.546,-25.620,-10.558,1.989,-3.115,3.868,9.533,-27.573,3.136,-3.136,0.000,0.000,6,0.008,0.150,880,1019,1239,920,3.021,8.972
678,0.000,9.306,34.003,3.104,2.685,8.606,-26.383,-10.580,1.945,-3.115,2.190,10.347,-28.824,3.136,-3.136,0.000,0.000,6,0.009,0.149,880,1019,1239,922,3.204,8.881
679,0.000,9.415,34.091,3.126,2.898,8.707,-26.963,-10.624,1.901,-3.137,2.079,10.428,-30.259,3.136,-3.136,0.000,0.000,6,0.010,0.147,880,1019,1238,921,3.113,8.698
680,0.000,9.547,34.179,3.115,2.716,8.520,-27.573,-10.668,1.835,-3.115,2.429,10.148,-31.266,3.136,-3.136,0.000,0.000,6,0.011,0.146,881,1019,1238,920,2.930,8.606
681,0.000,9.679,34.267,3.126,2.786,8.415,-27.726,-10.712,1.791,-3.137,3.092,10.076,-31.601,3.136,-3.136,0.000,0.000,6,0.012,0.145,881,1019,1238,923,2.655,8.515
682,0.000,9.811,34.355,3.115,4.016,8.568,-26.810,-10.734,1.747,-3.137,3.379,10.174,-31.510,3.136,-3.136,0.000,0.000,6,0.013,0.145,882,1019,1238,922,2.655,8.606
683,0.000,9.965,34.465,3.126,4.103,8.455,-26.474,-10.756,1.703,-3.115,3.365,9.861,-31.388,3.136,-3.136,0.000,0.000,6,0.014,0.144,882,1019,1238,921,2.838,8.698
684,0.000,10.119,34.553,3.126,3.557,8.683,-26.566,-10.778,1.659,-3.126,3.284,9.542,-31.205,3.136,-3.136,0.000,0.000,6,0.015,0.142,882,1019,1238,919,2.655,8.515
685,0.000,10.250,34.640,3.126,3.415,8.994,-26.841,-10.800,1.615,-3.137,3.303,9.717,-30.838,3.136,-3.136,0.000,0.000,6,0.015,0.143,881,1019,1237,920,2.747,8.331
686,0.000,10.382,34.728,3.104,2.367,8.795,-27.359,-10.822,1.571,-3.126,3.485,9.734,-30.533,3.136,-3.136,0.000,0.000,6,0.015,0.143,883,1019,1237,921,3.937,8.515
687,0.000,10.492,34.816,3.115,1.854,8.668,-27.695,-10.844,1.527,-3.115,3.293,9.650,-30.472,3.136,-3.136,0.000,0.000,6,0.015,0.142,884,1018,1237,921,4.028,8.423
688,0.000,10.602,34.926,3.126,2.300,8.980,-27.970,-10.866,1.461,-3.126,2.858,9.789,-30.533,3.136,-3.136,0.000,0.000,6,0.014,0.140,884,1019,1237,920,3.479,8.606
689,0.000,10.734,35.014,3.115,2.616,9.358,-27.939,-10.910,1.417,-3.148,2.436,9.930,-30.869,3.136,-3.136,0.000,0.000,6,0.013,0.138,885,1019,1237,920,3.388,8.972
690,0.000,10.866,35.124,3.115,3.044,9.593,-27.634,-10.954,1.373,-3.137,2.254,10.023,-31.113,3.136,-3.136,0.000,0.000,6,0.012,0.137,885,1018,1237,920,2.289,8.789
691,0.000,10.997,35.212,3.137,3.626,9.856,-27.329,-10.976,1.329,-3.137,2.448,10.031,-31.449,3.136,-3.136,0.000,0.000,6,0.012,0.137,886,1019,1237,919,1.831,8.606
692,0.000,11.129,35.300,3.093,3.609,9.988,-27.329,-11.019,1.263,-3.115,2.618,10.069,-31.846,3.136,-3.136,0.000,0.000,6,0.012,0.135,887,1018,1236,920,2.289,8.972
693,0.000,11.261,35.409,3.126,3.226,10.150,-27.390,-11.063,1.220,-3.137,2.704,10.107,-32.181,3.136,-3.136,0.000,0.000,6,0.011,0.133,886,1018,1236,919,2.564,9.339
694,0.000,11.393,35.497,3.115,2.647,10.217,-28.092,-11.107,1.176,-3.115,2.865,10.091,-32.395,3.136,-3.136,0.000,0.000,6,0.010,0.131,887,1018,1236,919,3.021,9.522
695,0.000,11.503,35.585,3.148,2.647,10.541,-29.099,-11.129,1.132,-3.126,2.951,10.045,-32.547,3.136,-3.136,0.000,0.000,6,0.009,0.129,888,1019,1236,919,3.571,9.796
696,0.000,11.635,35.695,3.137,2.685,10.713,-29.343,-11.151,1.066,-3.115,3.061,10.074,-32.578,3.136,-3.136,0.000,0.000,6,0.009,0.128,888,1018,1236,919,3.571,9.979
697,0.000,11.745,35.783,3.126,2.822,10.663,-29.709,-11.173,1.022,-3.126,3.336,9.988,-32.090,3.136,-3.136,0.000,0.000,6,0.008,0.128,888,1018,1236,918,3.204,10.071
698,0.000,11.876,35.871,3.126,3.138,10.689,-30.228,-11.195,1.000,-3.126,3.715,9.710,-31.022,3.136,-3.136,0.000,0.000,6,0.008,0.128,889,1019,1236,919,2.564,10.163
699,0.000,11.986,35.959,3.137,3.176,10.668,-30.961,-11.195,0.956,-3.126,3.885,9.638,-29.984,3.136,-3.136,0.000,0.000,6,0.008,0.129,889,1019,1235,919,2.564,10.529
700,0.000,12.118,36.047,3.104,3.473,10.790,-31.266,-11.195,0.912,-3.148,3.707,9.691,-28.855,3.136,-3.136,0.000,0.000,6,0.007,0.129,889,1018,1235,917,2.655,10.712
701,0.000,12.250,36.135,3.126,2.889,10.821,-31.724,-11.217,0.890,-3.137,3.389,9.695,-27.726,3.136,-3.136,0.000,0.000,6,0.007,0.128,890,1018,1235,918,2.747,10.620
702,0.000,12.360,36.222,3.115,2.357,10.605,-32.273,-11.217,0.846,-3.115,2.996,9.636,-26.810,3.136,-3.136,0.000,0.000,6,0.008,0.127,892,1018,1234,918,3.113,10.620
703,0.000,12.470,36.310,3.115,2.999,10.814,-32.517,-11.239,0.824,-3.115,2.707,9.873,-26.322,3.136,-3.136,0.000,0.000,6,0.008,0.125,891,1019,1235,918,3.113,10.620
704,0.000,12.602,36.398,3.115,3.494,11.017,-32.059,-11.261,0.780,-3.115,2.716,9.942,-25.925,3.136,-3.136,0.000,0.000,6,0.008,0.123,891,1018,1235,918,3.388,10.712
705,0.000,12.733,36.508,3.115,3.490,10.852,-31.754,-11.305,0.758,-3.126,2.649,9.877,-25.376,3.136,-3.136,0.000,0.000,6,0.009,0.121,891,1018,1234,917,2.838,10.803
706,0.000,12.865,36.596,3.137,3.765,11.218,-30.961,-11.327,0.736,-3.115,2.515,9.923,-25.071,3.136,-3.136,0.000,0.000,6,0.010,0.120,892,1018,1233,917,2.289,10.529
707,0.000,13.019,36.706,3.137,4.196,11.635,-29.740,-11.349,0.692,-3.115,2.331,9.956,-24.674,3.133,-3.133,0.000,0.000,6,0.011,0.118,893,1018,1234,917,2.930,10.803
708,0.000,13.151,36.794,3.115,3.959,11.654,-28.885,-11.393,0.648,-3.126,2.379,9.863,-24.613,3.111,-3.111,0.000,0.000,6,0.013,0.117,893,1018,1234,917,3.479,10.986
709,0.000,13.283,36.904,3.126,3.585,11.793,-28.733,-11.415,0.626,-3.115,2.506,10.021,-24.613,3.090,-3.090,0.000,0.000,6,0.015,0.116,893,1018,1233,917,3.479,10.803
710,0.000,13.415,36.992,3.148,3.408,11.929,-28.275,-11.459,0.582,-3.093,2.527,10.265,-25.010,3.069,-3.069,0.000,0.000,6,0.016,0.117,893,1018,1233,917,3.754,11.170
711,0.000,13.546,37.101,3.126,3.231,12.118,-27.512,-11.481,0.538,-3.082,2.843,10.064,-25.223,3.049,-3.049,0.000,0.000,6,0.016,0.118,893,1018,1235,917,4.120,11.627
712,0.000,13.678,37.211,3.104,3.224,12.288,-27.298,-11.525,0.516,-3.049,2.999,9.853,-25.376,3.032,-3.032,0.000,0.000,6,0.016,0.122,894,1018,1234,916,3.937,11.627
713,0.000,13.810,37.299,3.071,3.260,12.243,-27.298,-11.547,0.472,-3.049,3.054,9.767,-25.193,3.018,-3.020,0.000,0.000,6,0.016,0.124,894,1018,1232,917,3.571,11.719
714,0.000,13.920,37.409,3.071,3.561,12.341,-27.329,-11.569,0.428,-3.027,3.396,9.590,-24.887,3.003,-3.013,0.000,0.000,6,0.016,0.127,897,1018,1232,917,3.388,11.902
715,0.000,14.052,37.519,3.027,3.976,12.707,-27.268,-11.569,0.407,-3.016,3.758,9.473,-24.369,2.992,-3.009,0.000,0.000,6,0.015,0.129,895,1019,1232,915,3.204,12.085
716,0.000,14.184,37.607,3.027,3.600,12.662,-27.481,-11.569,0.385,-3.016,3.719,9.363,-23.728,2.985,-3.008,0.000,0.000,6,0.015,0.134,895,1019,1232,916,3.204,12.268
717,0.000,14.315,37.717,2.983,3.537,12.549,-27.695,-11.569,0.341,-3.016,3.710,9.300,-22.934,2.986,-2.986,0.000,0.000,6,0.014,0.139,896,1018,1232,917,3.204,12.177
718,0.000,14.447,37.805,2.983,3.504,12.827,-28.092,-11.591,0.319,-2.994,3.877,9.185,-21.958,2.992,-2.992,0.000,0.000,6,0.014,0.143,896,1018,1232,916,3.479,12.268
719,0.000,14.557,37.914,2.983,2.319,12.353,-29.557,-11.569,0.297,-2.983,3.952,9.106,-21.103,3.004,-3.004,0.000,0.000,6,0.013,0.147,896,1018,1231,914,3.937,12.634
720,0.000,14.645,38.002,2.972,2.156,12.157,-30.930,-11.569,0.275,-2.994,3.801,9.286,-20.401,3.023,-3.023,0.000,0.000,6,0.013,0.147,897,1017,1231,915,3.571,12.634
721,0.000,14.755,38.090,2.994,2.606,12.533,-31.968,-11.569,0.253,-2.994,3.595,9.327,-19.791,3.040,-3.040,0.000,0.000,6,0.011,0.146,897,1018,1231,916,3.479,12.543
722,0.000,14.865,38.178,2.983,2.228,12.329,-33.188,-11.591,0.231,-3.027,3.367,9.176,-19.211,3.058,-3.058,0.000,0.000,6,0.011,0.144,897,1018,1231,915,3.479,12.818
723,0.000,14.975,38.266,2.983,2.585,12.399,-34.104,-11.591,0.209,-3.016,3.178,9.154,-18.875,3.072,-3.072,0.000,0.000,6,0.011,0.142,898,1018,1231,914,2.289,12.268
724,0.000,15.084,38.354,2.994,3.312,12.494,-34.165,-11.591,0.187,-3.027,2.858,9.200,-18.662,3.083,-3.083,0.000,0.000,6,0.010,0.141,897,1018,1231,914,2.106,12.085
725,0.000,15.194,38.442,3.016,4.170,12.128,-33.402,-11.613,0.165,-3.060,2.577,9.166,-18.570,3.093,-3.093,0.000,0.000,6,0.009,0.142,898,1018,1231,915,2.564,12.451
726,0.000,15.326,38.530,3.060,4.304,12.423,-32.486,-11.635,0.143,-3.071,2.661,9.020,-18.540,3.105,-3.105,0.000,0.000,6,0.009,0.145,899,1018,1231,915,2.197,12.268
727,0.000,15.458,38.618,3.060,4.035,12.272,-31.876,-11.657,0.121,-3.071,2.790,8.905,-18.235,3.109,-3.109,0.000,0.000,6,0.009,0.147,899,1018,1230,915,2.564,12.360
728,0.000,15.590,38.705,3.071,3.894,12.229,-31.113,-11.657,0.099,-3.104,2.795,8.972,-18.112,3.111,-3.136,0.000,0.000,6,0.008,0.146,900,1018,1230,915,3.296,12.451
729,0.000,15.722,38.815,3.071,3.600,12.241,-30.350,-11.679,0.077,-3.104,2.790,9.016,-18.173,3.115,-3.136,0.000,0.000,6,0.007,0.145,900,1018,1230,915,4.120,12.085
730,0.000,15.854,38.903,3.104,3.265,12.241,-29.923,-11.701,0.055,-3.104,2.838,8.977,-18.631,3.120,-3.136,0.000,0.000,6,0.008,0.143,900,1018,1230,915,4.303,12.360
731,0.000,15.985,39.013,3.115,3.432,12.432,-29.435,-11.723,0.033,-3.126,2.656,9.016,-19.211,3.122,-3.136,0.000,0.000,6,0.008,0.141,901,1018,1230,915,4.028,12.268
732,0.000,16.117,39.123,3.093,3.868,12.815,-28.367,-11.745,0.011,-3.115,2.537,9.116,-20.035,3.125,-3.136,0.000,0.000,6,0.008,0.139,901,1018,1229,915,3.845,12.177
733,0.000,16.249,39.211,3.104,3.796,12.669,-27.481,-11.789,0.000,-3.115,2.623,9.095,-20.890,3.129,-3.136,0.000,0.000,6,0.008,0.137,902,1018,1229,915,3.571,12.177
734,0.000,16.381,39.321,3.104,3.834,12.557,-26.810,-11.810,-0.033,-3.126,2.652,8.958,-21.897,3.132,-3.136,0.000,0.000,6,0.010,0.136,902,1018,1229,915,3.204,12.177
735,0.000,16.513,39.431,3.115,4.148,12.588,-26.291,-11.832,-0.055,-3.104,2.695,8.932,-23.178,3.132,-3.136,0.000,0.000,6,0.010,0.135,902,1018,1229,914,3.388,12.360
736,0.000,16.667,39.540,3.115,4.081,12.597,-25.864,-11.876,-0.099,-3.115,3.025,8.889,-24.186,3.132,-3.136,0.000,0.000,6,0.011,0.139,903,1018,1229,914,3.845,12.726
737,0.000,16.798,39.650,3.115,3.521,12.679,-25.895,-11.898,-0.143,-3.104,3.358,8.836,-25.132,3.131,-3.136,0.000,0.000,6,0.012,0.145,903,1018,1229,914,3.754,12.634
738,0.000,16.908,39.760,3.115,3.322,12.681,-26.169,-11.920,-0.187,-3.115,3.514,8.786,-26.108,3.128,-3.136,0.000,0.000,6,0.013,0.152,904,1018,1228,914,3.754,12.543
739,0.000,17.040,39.870,3.115,2.573,12.257,-27.115,-11.942,-0.253,-3.115,3.696,8.692,-27.207,3.125,-3.136,0.000,0.000,6,0.013,0.154,904,1018,1228,914,4.120,12.543
740,0.000,17.150,39.958,3.126,2.089,11.920,-28.367,-11.942,-0.297,-3.126,3.739,8.647,-28.489,3.122,-3.136,0.000,0.000,6,0.013,0.155,904,1018,1228,914,4.028,12.543
741,0.000,17.282,40.068,3.126,2.901,12.241,-29.129,-11.964,-0.341,-3.126,3.636,8.738,-29.648,3.119,-3.136,0.000,0.000,6,0.013,0.157,905,1018,1227,914,3.479,12.634
742,0.000,17.414,40.178,3.126,2.941,12.128,-29.801,-11.986,-0.407,-3.104,3.475,8.757,-30.472,3.116,-3.136,0.000,0.000,6,0.012,0.161,905,1018,1228,914,3.296,12.634
743,0.000,17.545,40.287,3.115,2.707,11.683,-30.625,-11.986,-0.450,-3.115,4.067,8.395,-31.327,3.115,-3.136,0.000,0.000,6,0.012,0.161,905,1018,1228,914,2.564,12.177
744,0.000,17.677,40.397,3.126,3.537,11.714,-30.808,-11.986,-0.494,-3.137,4.124,8.403,-31.968,3.113,-3.136,0.000,0.000,6,0.012,0.161,905,1018,1227,914,2.014,11.902
745,0.000,17.809,40.529,3.093,3.810,11.644,-30.350,-12.008,-0.538,-3.126,4.356,8.185,-32.090,3.111,-3.136,0.000,0.000,6,0.012,0.161,906,1018,1227,914,2.838,12.177
746,0.000,17.963,40.639,3.115,3.583,11.347,-29.709,-11.986,-0.582,-3.126,4.560,7.890,-31.907,3.111,-3.111,0.000,0.000,6,0.011,0.161,906,1017,1229,913,2.930,12.085
747,0.000,18.117,40.749,3.093,3.607,11.264,-29.007,-11.964,-0.626,-3.115,4.648,7.852,-31.388,3.111,-3.111,0.000,0.000,6,0.011,0.160,906,1017,1227,913,2.655,11.627
748,0.000,18.249,40.859,3.104,3.482,11.120,-28.550,-11.964,-0.670,-3.115,4.883,7.876,-30.533,3.111,-3.111,0.000,0.000,6,0.011,0.157,907,1017,1226,913,3.479,11.627
749,0.000,18.402,40.969,3.115,3.095,10.433,-28.641,-11.942,-0.714,-3.104,4.835,7.919,-29.801,3.111,-3.111,0.000,0.000,6,0.011,0.155,907,1018,1227,913,3.754,11.627
750,0.000,18.534,41.100,3.104,2.599,10.160,-28.641,-11.920,-0.758,-3.104,4.701,8.077,-29.129,3.111,-3.111,0.000,0.000,6,0.011,0.153,907,1018,1228,913,3.571,11.261
751,0.000,18.666,41.210,3.082,2.419,10.359,-28.824,-11.920,-0.802,-3.093,4.596,8.252,-28.702,3.111,-3.136,0.000,0.000,6,0.011,0.151,908,1018,1227,913,3.571,11.261
752,0.000,18.798,41.320,3.093,1.881,9.966,-29.404,-11.898,-0.846,-3.104,4.440,8.391,-28.611,3.112,-3.136,0.000,0.000,6,0.011,0.149,908,1017,1225,914,3.479,11.078
753,0.000,18.930,41.452,3.093,1.893,9.786,-29.801,-11.898,-0.890,-3.126,4.320,8.551,-28.489,3.112,-3.136,0.000,0.000,6,0.011,0.147,910,1018,1226,914,3.021,10.346
754,0.000,19.062,41.562,3.104,2.688,9.801,-29.679,-11.898,-0.912,-3.126,4.356,8.494,-28.092,3.111,-3.136,0.000,0.000,6,0.012,0.145,909,1017,1226,912,2.564,10.071
755,0.000,19.215,41.672,3.115,3.277,9.743,-29.099,-11.898,-0.956,-3.115,4.713,8.242,-27.543,3.111,-3.111,0.000,0.000,6,0.013,0.143,909,1018,1226,913,2.380,10.346
756,0.000,19.369,41.804,3.104,3.681,9.827,-28.977,-11.876,-1.000,-3.137,5.154,8.137,-26.688,3.109,-3.109,0.000,0.000,6,0.014,0.141,910,1018,1226,913,1.831,9.888
757,0.000,19.523,41.913,3.093,2.903,9.468,-30.014,-11.854,-1.044,-3.082,5.106,8.144,-26.017,3.104,-3.104,0.000,0.000,6,0.015,0.139,910,1018,1226,913,1.831,9.705
758,0.000,19.655,42.023,3.082,2.369,9.135,-30.686,-11.832,-1.066,-3.093,4.840,8.300,-25.711,3.100,-3.100,0.000,0.000,6,0.016,0.137,911,1018,1226,912,2.655,9.796
759,0.000,19.809,42.155,3.082,2.920,9.391,-30.838,-11.810,-1.110,-3.104,4.833,8.371,-25.223,3.094,-3.094,0.000,0.000,6,0.018,0.136,911,1017,1225,913,3.204,9.705
760,0.000,19.962,42.287,3.104,1.706,9.104,-31.327,-11.810,-1.132,-3.082,4.941,8.213,-24.674,3.087,-3.087,0.000,0.000,6,0.018,0.135,911,1018,1225,913,3.662,9.796
761,0.000,20.094,42.397,3.071,2.343,9.128,-32.151,-11.789,-1.176,-3.082,4.969,8.189,-24.430,3.079,-3.079,0.000,0.000,6,0.019,0.134,912,1018,1225,912,2.838,9.430
762,0.000,20.270,42.529,3.082,3.736,9.142,-31.693,-11.767,-1.198,-3.071,5.015,8.228,-23.758,3.070,-3.070,0.000,0.000,6,0.020,0.132,911,1018,1225,911,2.289,9.064
763,0.000,20.424,42.661,3.104,3.554,9.059,-30.808,-11.745,-1.241,-3.060,5.259,8.084,-22.782,3.060,-3.060,0.000,0.000,6,0.021,0.131,911,1018,1225,912,2.838,9.339
764,0.000,20.600,42.792,3.082,3.545,9.037,-30.686,-11.723,-1.263,-3.060,5.357,7.919,-21.744,3.050,-3.050,0.000,0.000,6,0.022,0.131,912,1018,1224,912,1.648,9.064
765,0.000,20.775,42.902,3.060,3.300,9.020,-30.716,-11.679,-1.285,-3.049,5.546,7.969,-20.706,3.039,-3.039,0.000,0.000,6,0.022,0.133,913,1018,1225,911,2.289,9.064
766,0.000,20.929,43.034,3.038,2.649,8.848,-30.808,-11.657,-1.307,-3.049,5.711,8.031,-19.608,3.028,-3.028,0.000,0.000,6,0.022,0.136,913,1018,1225,912,3.662,9.064
767,0.000,21.083,43.166,3.060,2.606,8.941,-30.686,-11.613,-1.329,-3.038,5.496,8.103,-18.692,3.018,-3.018,0.000,0.000,6,0.022,0.137,914,1018,1225,911,3.479,8.972
768,0.000,21.237,43.298,3.038,2.345,8.829,-31.235,-11.591,-1.351,-3.038,5.242,8.199,-18.082,3.009,-3.009,0.000,0.000,6,0.021,0.136,914,1018,1225,911,3.479,8.972
769,0.000,21.391,43.430,3.027,2.431,8.503,-31.876,-11.547,-1.373,-2.983,5.312,8.118,-17.075,3.001,-3.001,0.000,0.000,6,0.022,0.135,915,1018,1224,911,3.296,8.972
770,0.000,21.545,43.539,3.016,2.752,8.711,-32.486,-11.525,-1.395,-3.005,5.307,8.063,-16.037,2.992,-2.992,0.000,0.000,6,0.022,0.135,915,1018,1225,911,2.564,8.789
771,0.000,21.720,43.671,2.994,3.300,8.762,-32.792,-11.481,-1.395,-2.983,5.223,8.120,-15.183,2.985,-2.985,0.000,0.000,6,0.020,0.136,915,1018,1225,911,2.564,8.881
772,0.000,21.874,43.803,2.994,3.492,8.719,-33.310,-11.459,-1.417,-2.983,5.362,8.053,-13.962,2.980,-2.980,0.000,0.000,6,0.020,0.136,916,1018,1224,910,2.289,8.789
773,0.000,22.050,43.913,2.994,2.654,8.484,-34.867,-11.415,-1.417,-2.972,5.391,8.000,-13.352,2.975,-2.975,0.000,0.000,6,0.019,0.134,916,1017,1224,910,2.380,8.423
774,0.000,22.204,44.045,2.994,3.128,8.450,-35.477,-11.393,-1.439,-2.972,5.185,8.158,-12.833,2.972,-2.972,0.000,0.000,6,0.019,0.133,916,1018,1224,911,2.747,8.698
775,0.000,22.379,44.155,2.972,4.172,8.685,-35.325,-11.349,-1.439,-2.939,4.905,8.355,-12.039,2.969,-2.969,0.000,0.000,6,0.018,0.130,916,1018,1225,910,3.296,8.698
776,0.000,22.555,44.287,2.972,3.384,8.278,-35.813,-11.327,-1.461,-2.961,4.617,8.257,-11.460,2.967,-2.967,0.000,0.000,6,0.018,0.131,917,1019,1225,910,3.479,8.698
777,0.000,22.731,44.418,2.972,3.087,8.101,-36.881,-11.305,-1.461,-2.950,4.612,8.008,-11.002,2.966,-2.966,0.000,0.000,6,0.017,0.136,917,1018,1224,910,2.655,8.423
778,0.000,22.907,44.528,2.961,4.311,8.403,-36.698,-11.283,-1.461,-2.950,4.711,8.166,-10.819,2.966,-2.966,0.000,0.000,6,0.016,0.143,917,1018,1224,910,3.113,8.423
779,0.000,23.105,44.660,2.950,4.696,8.486,-35.966,-11.261,-1.483,-2.950,4.589,8.419,-10.849,2.967,-2.967,0.000,0.000,6,0.016,0.149,918,1018,1224,910,4.120,8.606
780,0.000,23.302,44.792,2.950,4.361,8.328,-35.538,-11.239,-1.483,-2.972,4.392,8.316,-10.941,2.968,-2.968,0.000,0.000,6,0.015,0.153,920,1018,1224,909,3.296,8.240
781,0.000,23.500,44.902,2.950,4.991,8.410,-34.836,-11.239,-1.483,-2.939,4.328,8.209,-10.727,2.970,-2.970,0.000,0.000,6,0.015,0.154,918,1018,1225,909,3.021,8.057
782,0.000,23.698,45.034,2.961,4.964,8.158,-34.379,-11.217,-1.505,-2.961,4.488,8.264,-10.513,2.972,-2.972,0.000,0.000,6,0.015,0.152,918,1018,1225,909,4.303,8.331
783,0.000,23.896,45.165,2.961,4.888,8.216,-33.799,-11.195,-1.505,-2.961,4.502,8.336,-10.483,2.975,-2.975,0.000,0.000,6,0.015,0.151,919,1018,1223,909,4.669,8.423
784,0.000,24.093,45.297,2.950,4.972,8.209,-33.768,-11.195,-1.527,-2.961,4.450,8.520,-10.819,2.976,-2.976,0.000,0.000,6,0.016,0.148,919,1018,1224,909,4.303,8.240
785,0.000,24.313,45.429,2.950,4.574,7.823,-34.195,-11.173,-1.527,-2.939,4.268,8.568,-11.398,2.977,-2.977,0.000,0.000,6,0.017,0.147,920,1018,1225,909,4.944,8.331
786,0.000,24.511,45.561,2.950,4.395,8.120,-34.531,-11.173,-1.549,-2.961,4.057,8.687,-12.039,2.977,-2.977,0.000,0.000,6,0.018,0.145,920,1018,1224,909,4.944,8.148
787,0.000,24.709,45.693,2.961,4.984,8.278,-33.921,-11.173,-1.571,-2.961,3.971,8.719,-12.894,2.975,-2.975,0.000,0.000,6,0.020,0.145,920,1018,1223,909,4.852,8.148
788,0.000,24.928,45.825,2.961,6.061,8.319,-33.249,-11.173,-1.593,-2.950,4.246,8.644,-13.809,2.971,-2.971,0.000,0.000,6,0.021,0.144,920,1018,1224,908,4.944,8.148
789,0.000,25.148,45.957,2.950,5.340,7.878,-33.829,-11.173,-1.615,-2.961,4.517,8.678,-14.755,2.965,-2.965,0.000,0.000,6,0.023,0.143,920,1018,1225,909,4.486,7.782
790,0.000,25.368,46.088,2.961,5.259,7.756,-34.043,-11.173,-1.637,-2.983,4.476,8.951,-16.037,2.957,-2.957,0.000,0.000,6,0.025,0.140,921,1018,1225,908,4.395,8.057
791,0.000,25.588,46.220,2.939,6.197,8.362,-33.585,-11.173,-1.659,-2.950,4.373,9.104,-17.105,2.947,-2.947,0.000,0.000,6,0.026,0.139,921,1018,1223,909,4.944,8.240
792,0.000,25.807,46.374,2.950,5.874,8.223,-33.768,-11.173,-1.681,-2.950,4.270,8.929,-18.204,2.937,-2.937,0.000,0.000,6,0.026,0.137,922,1018,1223,908,6.043,8.240
793,0.000,26.027,46.506,2.961,5.190,8.000,-33.799,-11.173,-1.703,-2.939,4.095,8.987,-19.638,2.926,-2.926,0.000,0.000,6,0.027,0.135,922,1018,1225,907,5.310,7.874
794,0.000,26.247,46.638,2.917,6.408,8.417,-33.005,-11.195,-1.747,-2.928,4.031,9.154,-20.859,2.916,-2.916,0.000,0.000,6,0.026,0.134,922,1018,1225,907,5.219,7.691
795,0.000,26.488,46.791,2.939,6.631,8.108,-31.998,-11.195,-1.791,-2.906,4.112,9.054,-22.171,2.905,-2.905,0.000,0.000,6,0.026,0.132,922,1018,1224,908,6.134,8.331
796,0.000,26.730,46.945,2.928,6.865,8.290,-31.022,-11.195,-1.813,-2.906,4.419,9.018,-22.965,2.896,-2.896,0.000,0.000,6,0.026,0.131,922,1018,1224,908,5.859,8.148
797,0.000,26.950,47.077,2.906,6.593,8.247,-30.594,-11.217,-1.857,-2.895,4.732,9.049,-23.911,2.889,-2.889,0.000,0.000,6,0.026,0.130,922,1018,1224,906,5.127,7.965
798,0.000,27.192,47.209,2.917,6.423,8.027,-30.106,-11.217,-1.901,-2.884,4.907,9.241,-24.857,2.882,-2.882,0.000,0.000,6,0.026,0.128,923,1017,1224,908,6.409,8.331
799,0.000,27.411,47.363,2.884,5.862,7.806,-29.892,-11.217,-1.945,-2.895,5.034,9.466,-25.406,2.874,-2.874,0.000,0.000,6,0.025,0.127,923,1018,1224,908,6.592,8.057
800,0.000,27.631,47.495,2.884,5.429,7.687,-30.350,-11.217,-1.989,-2.884,5.020,9.466,-26.505,2.869,-2.869,0.000,0.000,6,0.025,0.125,923,1018,1224,906,6.867,8.240
801,0.000,27.851,47.626,2.895,5.230,7.840,-31.205,-11.239,-2.033,-2.851,5.089,9.482,-27.237,2.863,-2.863,0.000,0.000,6,0.025,0.124,924,1018,1223,905,6.592,8.240
802,0.000,28.049,47.758,2.895,5.652,8.082,-31.815,-11.239,-2.076,-2.851,5.395,9.621,-27.695,2.858,-2.858,0.000,0.000,6,0.024,0.125,923,1018,1223,907,6.409,7.965
803,0.000,28.268,47.890,2.873,4.816,7.493,-33.158,-11.239,-2.120,-2.862,5.726,9.626,-28.153,2.854,-2.854,0.000,0.000,6,0.023,0.125,924,1018,1224,907,5.859,7.782
804,0.000,28.466,48.022,2.873,4.993,7.404,-34.867,-11.217,-2.164,-2.840,5.680,9.509,-28.550,2.851,-2.851,0.000,0.000,6,0.023,0.126,924,1018,1223,906,5.402,7.599
805,0.000,28.686,48.154,2.862,6.964,8.115,-35.203,-11.217,-2.208,-2.840,5.393,9.650,-28.794,2.850,-2.850,0.000,0.000,6,0.023,0.126,925,1018,1223,906,5.219,7.782
806,0.000,28.905,48.264,2.851,6.865,7.806,-35.721,-11.217,-2.252,-2.829,5.340,9.621,-28.763,2.848,-2.848,0.000,0.000,6,0.022,0.126,925,1018,1223,906,5.585,8.057
807,0.000,29.125,48.396,2.829,5.563,7.404,-36.790,-11.217,-2.296,-2.851,5.462,9.344,-28.611,2.841,-2.841,0.000,0.000,6,0.021,0.125,926,1018,1223,906,4.761,7.416
808,0.000,29.345,48.527,2.829,6.753,7.591,-36.667,-11.217,-2.340,-2.829,5.271,9.514,-28.428,2.829,-2.829,0.000,0.000,6,0.021,0.124,926,1018,1223,906,4.944,7.324
809,0.000,29.587,48.637,2.851,6.952,7.550,-36.149,-11.217,-2.384,-2.807,5.144,9.645,-28.214,2.817,-2.817,0.000,0.000,6,0.020,0.123,926,1018,1223,906,6.958,8.057
810,0.000,29.806,48.769,2.840,6.181,7.311,-35.996,-11.217,-2.428,-2.829,5.142,9.516,-27.970,2.804,-2.804,0.000,0.000,6,0.020,0.121,926,1018,1223,905,6.867,7.782
811,0.000,30.026,48.901,2.829,6.367,7.320,-35.843,-11.217,-2.450,-2.796,5.151,9.633,-27.848,2.791,-2.791,0.000,0.000,6,0.019,0.120,927,1018,1223,906,5.493,7.324
812,0.000,30.246,49.011,2.818,6.303,7.373,-35.691,-11.217,-2.494,-2.807,5.046,9.834,-27.787,2.777,-2.777,0.000,0.000,6,0.019,0.118,927,1018,1223,905,6.683,7.507
813,0.000,30.466,49.143,2.796,6.367,7.380,-35.447,-11.217,-2.538,-2.774,5.029,9.992,-27.604,2.762,-2.762,0.000,0.000,6,0.019,0.116,928,1018,1223,905,6.867,7.507
814,0.000,30.685,49.252,2.796,5.889,7.466,-35.966,-11.239,-2.582,-2.752,5.273,10.102,-27.512,2.746,-2.746,0.000,0.000,6,0.019,0.115,928,1019,1223,905,6.134,7.233
815,0.000,30.883,49.362,2.774,5.755,7.380,-36.881,-11.239,-2.626,-2.763,5.314,10.112,-27.329,2.729,-2.729,0.000,0.000,6,0.019,0.115,928,1019,1223,905,6.317,7.233
816,0.000,31.103,49.494,2.774,5.872,7.586,-37.552,-11.239,-2.670,-2.730,5.328,10.088,-27.329,2.713,-2.713,0.000,0.000,6,0.019,0.114,928,1018,1222,905,6.226,7.324
817,0.000,31.301,49.604,2.763,5.781,7.850,-38.285,-11.239,-2.714,-2.719,5.221,10.079,-27.237,2.697,-2.697,0.000,0.000,6,0.019,0.113,928,1018,1222,904,6.317,7.324
818,0.000,31.498,49.714,2.741,6.411,7.972,-38.560,-11.239,-2.736,-2.686,5.151,9.983,-27.054,2.680,-2.680,0.000,0.000,6,0.019,0.113,929,1018,1222,905,5.859,7.416
819,0.000,31.696,49.824,2.741,6.334,7.929,-39.597,-11.239,-2.780,-2.686,5.436,9.803,-26.871,2.665,-2.665,0.000,0.000,6,0.020,0.112,930,1018,1222,904,5.676,7.324
820,0.000,31.894,49.934,2.697,5.738,7.739,-41.215,-11.239,-2.824,-2.664,5.625,9.667,-26.444,2.647,-2.647,0.000,0.000,6,0.020,0.111,929,1018,1223,904,5.859,7.507
821,0.000,32.092,50.043,2.697,6.437,8.041,-42.039,-11.239,-2.846,-2.675,5.620,9.734,-25.742,2.630,-2.630,0.000,0.000,6,0.020,0.111,929,1018,1223,904,5.768,7.782
822,0.000,32.311,50.131,2.653,6.906,8.343,-42.252,-11.217,-2.867,-2.642,5.709,9.837,-24.735,2.612,-2.612,0.000,0.000,6,0.020,0.110,930,1018,1222,904,6.409,7.965
823,0.000,32.509,50.241,2.642,6.454,8.441,-42.985,-11.195,-2.911,-2.631,6.035,9.504,-23.117,2.596,-2.596,0.000,0.000,6,0.020,0.111,930,1018,1222,904,6.317,7.874
824,0.000,32.707,50.351,2.664,5.771,8.259,-44.175,-11.173,-2.911,-2.598,6.212,9.087,-21.408,2.580,-2.580,0.000,0.000,6,0.019,0.109,930,1018,1223,904,5.676,7.691
825,0.000,32.883,50.461,2.620,6.411,8.367,-44.266,-11.129,-2.933,-2.587,6.099,9.013,-19.577,2.565,-2.565,0.000,0.000,6,0.019,0.109,930,1018,1222,904,6.409,7.965
826,0.000,33.080,50.549,2.587,7.342,8.929,-43.961,-11.107,-2.955,-2.554,5.841,8.996,-17.350,2.550,-2.550,0.000,0.000,6,0.019,0.108,930,1018,1221,904,6.867,8.331
827,0.000,33.278,50.659,2.598,6.233,8.769,-44.755,-11.085,-2.955,-2.565,5.570,8.934,-15.732,2.536,-2.536,0.000,0.000,6,0.018,0.107,931,1018,1222,903,6.409,8.423
828,0.000,33.454,50.747,2.565,5.783,8.747,-45.029,-11.041,-2.977,-2.554,5.326,9.092,-14.359,2.521,-2.521,0.000,0.000,6,0.018,0.107,930,1018,1223,903,5.768,8.240
829,0.000,33.630,50.835,2.554,6.478,9.162,-45.304,-11.019,-2.977,-2.543,5.094,9.162,-12.711,2.506,-2.506,0.000,0.000,6,0.017,0.108,931,1018,1222,903,6.409,8.331
830,0.000,33.805,50.944,2.543,6.154,9.126,-45.853,-11.019,-2.977,-2.532,4.754,9.157,-11.582,2.495,-2.495,0.000,0.000,6,0.017,0.108,931,1019,1221,904,7.324,8.881
831,0.000,33.981,51.032,2.532,7.332,9.944,-45.670,-10.997,-2.977,-2.488,4.703,9.114,-10.330,2.485,-2.485,0.000,0.000,6,0.016,0.107,933,1018,1221,904,6.226,8.698
832,0.000,34.157,51.120,2.510,7.311,10.000,-45.457,-10.976,-2.977,-2.499,4.577,9.013,-9.293,2.475,-2.475,0.000,0.000,6,0.016,0.106,931,1019,1222,903,5.768,8.698
833,0.000,34.333,51.208,2.488,7.289,10.105,-45.335,-10.976,-2.977,-2.488,4.124,9.020,-8.927,2.465,-2.465,0.000,0.000,6,0.016,0.104,932,1018,1221,903,6.409,9.155
834,0.000,34.509,51.296,2.477,7.730,10.311,-44.877,-10.954,-2.977,-2.455,3.837,9.071,-8.804,2.453,-2.453,0.000,0.000,6,0.015,0.103,932,1018,1222,903,6.134,9.064
835,0.000,34.684,51.384,2.477,7.548,10.428,-44.633,-10.954,-2.977,-2.444,3.851,9.025,-8.530,2.442,-2.442,0.000,0.000,6,0.015,0.103,932,1018,1222,903,7.324,9.888
836,0.000,34.860,51.450,2.477,7.519,10.639,-44.480,-10.954,-2.977,-2.444,3.947,9.006,-8.316,2.430,-2.430,0.000,0.000,6,0.015,0.105,932,1019,1221,901,7.233,9.979
837,0.000,35.014,51.538,2.455,7.782,10.732,-44.205,-10.954,-2.977,-2.434,3.889,9.051,-8.286,2.421,-2.421,0.000,0.000,6,0.015,0.106,932,1018,1221,902,7.233,10.071
838,0.000,35.190,51.626,2.423,7.948,10.981,-43.717,-10.954,-2.977,-2.412,3.882,8.970,-8.316,2.415,-2.415,0.000,0.000,6,0.014,0.106,933,1018,1222,904,7.691,10.254
839,0.000,35.344,51.691,2.434,7.847,11.137,-43.473,-10.954,-2.977,-2.412,3.918,8.822,-8.408,2.409,-2.409,0.000,0.000,6,0.014,0.104,933,1018,1222,902,7.507,10.346
840,0.000,35.497,51.757,2.423,7.488,10.976,-43.839,-10.954,-2.977,-2.412,4.071,8.668,-8.164,2.401,-2.401,0.000,0.000,6,0.014,0.103,933,1018,1221,900,7.507,10.620
841,0.000,35.651,51.845,2.434,7.782,11.213,-44.114,-10.932,-2.977,-2.390,4.074,8.668,-8.042,2.394,-2.394,0.000,0.000,6,0.014,0.102,932,1018,1221,902,7.782,10.712
842,0.000,35.783,51.911,2.390,7.945,11.513,-44.236,-10.932,-2.977,-2.390,3.923,8.719,-8.347,2.384,-2.384,0.000,0.000,6,0.013,0.102,934,1018,1221,902,7.874,10.895
843,0.000,35.937,51.977,2.423,7.876,11.589,-44.236,-10.932,-2.977,-2.357,3.810,8.620,-8.713,2.376,-2.376,0.000,0.000,6,0.013,0.101,934,1019,1222,901,7.782,11.078
844,0.000,36.091,52.043,2.379,8.206,11.654,-43.900,-10.932,-2.977,-2.368,3.628,8.522,-8.896,2.368,-2.368,0.000,0.000,6,0.014,0.100,934,1018,1222,901,7.416,10.895
845,0.000,36.222,52.109,2.401,8.549,11.747,-43.168,-10.932,-2.977,-2.379,3.552,8.436,-8.927,2.358,-2.358,0.000,0.000,6,0.014,0.100,934,1018,1221,901,7.782,11.170
846,0.000,36.376,52.153,2.368,8.551,11.642,-42.893,-10.932,-2.977,-2.346,3.487,8.383,-9.201,2.348,-2.348,0.000,0.000,6,0.014,0.102,934,1018,1221,901,7.874,11.444
847,0.000,36.508,52.219,2.357,8.403,11.575,-43.015,-10.932,-2.977,-2.346,3.473,8.336,-9.384,2.341,-2.341,0.000,0.000,6,0.015,0.103,934,1018,1221,901,7.874,11.536
848,0.000,36.662,52.285,2.357,8.539,11.750,-42.710,-10.932,-2.977,-2.335,3.511,8.324,-9.476,2.333,-2.333,0.000,0.000,6,0.015,0.101,935,1018,1221,901,8.148,11.627
849,0.000,36.794,52.351,2.357,8.690,11.824,-41.733,-10.932,-2.999,-2.346,3.420,8.398,-9.781,2.324,-2.324,0.000,0.000,6,0.015,0.100,935,1018,1221,901,8.515,11.719
850,0.000,36.948,52.417,2.346,8.498,11.893,-40.757,-10.932,-2.999,-2.324,3.403,8.412,-10.086,2.315,-2.315,0.000,0.000,6,0.014,0.099,934,1018,1221,900,8.515,11.627
851,0.000,37.079,52.482,2.324,8.393,11.836,-39.902,-10.932,-2.999,-2.302,3.430,8.295,-10.178,2.306,-2.306,0.000,0.000,6,0.014,0.097,935,1019,1221,900,8.331,11.536
852,0.000,37.211,52.548,2.346,8.716,11.807,-39.231,-10.932,-2.999,-2.302,3.396,8.221,-10.269,2.295,-2.295,0.000,0.000,6,0.014,0.096,935,1019,1221,900,8.515,11.719
853,0.000,37.365,52.592,2.313,8.855,11.879,-38.468,-10.932,-2.999,-2.291,3.456,8.292,-10.269,2.283,-2.283,0.000,0.000,6,0.014,0.097,936,1019,1221,899,8.606,11.810
854,0.000,37.497,52.658,2.313,8.948,11.874,-37.400,-10.932,-2.999,-2.280,3.439,8.395,-10.330,2.272,-2.272,0.000,0.000,6,0.014,0.097,935,1019,1221,900,8.423,11.810
855,0.000,37.629,52.724,2.302,8.968,11.958,-36.057,-10.954,-3.021,-2.269,3.456,8.410,-10.269,2.263,-2.263,0.000,0.000,6,0.014,0.099,936,1018,1221,900,8.331,11.810
856,0.000,37.783,52.790,2.291,8.594,11.989,-35.080,-10.954,-3.021,-2.269,3.408,8.398,-10.239,2.256,-2.256,0.000,0.000,6,0.015,0.099,935,1019,1221,899,8.698,11.719
857,0.000,37.914,52.856,2.280,8.326,11.857,-34.226,-10.954,-3.021,-2.247,3.370,8.460,-10.483,2.249,-2.249,0.000,0.000,6,0.014,0.098,936,1018,1221,899,8.789,11.810
858,0.000,38.024,52.922,2.258,8.467,11.798,-33.219,-10.954,-3.021,-2.247,3.593,8.508,-10.361,2.242,-2.242,0.000,0.000,6,0.014,0.097,937,1019,1220,899,8.881,11.810
859,0.000,38.156,52.988,2.269,8.529,11.814,-32.212,-10.954,-3.043,-2.236,3.686,8.506,-10.056,2.233,-2.233,0.000,0.000,6,0.015,0.096,936,1019,1221,899,8.881,11.902
860,0.000,38.288,53.032,2.247,8.247,11.805,-31.724,-10.954,-3.043,-2.236,3.875,8.491,-9.842,2.223,-2.223,0.000,0.000,6,0.015,0.094,936,1018,1222,899,8.515,11.902
861,0.000,38.398,53.098,2.236,7.787,11.721,-31.662,-10.954,-3.043,-2.203,4.067,8.515,-9.751,2.211,-2.211,0.000,0.000,6,0.015,0.093,936,1019,1221,898,8.240,11.810
862,0.000,38.530,53.164,2.225,7.627,11.678,-31.449,-10.954,-3.043,-2.214,3.997,8.649,-9.689,2.198,-2.198,0.000,0.000,6,0.015,0.094,936,1019,1220,898,8.423,11.719
863,0.000,38.640,53.208,2.214,7.610,11.697,-31.327,-10.954,-3.065,-2.214,4.031,8.728,-9.751,2.188,-2.188,0.000,0.000,6,0.015,0.096,936,1018,1222,898,8.515,11.810
864,0.000,38.727,53.252,2.225,7.354,11.558,-31.327,-10.954,-3.065,-2.192,4.148,8.678,-9.842,2.179,-2.179,0.000,0.000,6,0.016,0.098,936,1018,1221,898,8.240,11.719
865,0.000,38.837,53.317,2.203,7.368,11.407,-31.296,-10.954,-3.065,-2.192,4.141,8.659,-9.812,2.173,-2.173,0.000,0.000,6,0.016,0.098,936,1019,1220,898,7.782,11.719
866,0.000,38.947,53.361,2.192,7.584,11.424,-31.174,-10.932,-3.087,-2.159,4.160,8.649,-9.689,2.168,-2.168,0.000,0.000,6,0.016,0.098,937,1019,1220,898,7.599,11.627
867,0.000,39.057,53.405,2.181,7.553,11.304,-31.083,-10.932,-3.087,-2.170,4.277,8.597,-9.659,2.162,-2.162,0.000,0.000,6,0.016,0.096,936,1019,1222,898,7.599,11.627
868,0.000,39.167,53.449,2.170,7.730,11.276,-30.808,-10.932,-3.087,-2.159,4.363,8.597,-9.445,2.155,-2.155,0.000,0.000,6,0.016,0.095,937,1019,1221,897,7.324,11.536
869,0.000,39.277,53.493,2.181,7.751,11.142,-30.350,-10.910,-3.087,-2.159,4.404,8.611,-9.354,2.146,-2.146,0.000,0.000,6,0.016,0.095,937,1019,1220,898,7.324,11.353
870,0.000,39.387,53.559,2.159,7.663,11.055,-29.587,-10.910,-3.109,-2.148,4.431,8.599,-9.293,2.139,-2.139,0.000,0.000,6,0.016,0.095,938,1019,1220,898,7.507,11.353
871,0.000,39.474,53.603,2.137,7.325,10.974,-29.068,-10.910,-3.109,-2.137,4.601,8.544,-9.018,2.131,-2.131,0.000,0.000,6,0.016,0.094,937,1019,1221,896,7.507,11.261
872,0.000,39.584,53.647,2.137,6.858,10.742,-28.946,-10.888,-3.131,-2.126,4.809,8.501,-8.713,2.123,-2.123,0.000,0.000,6,0.016,0.092,937,1019,1221,897,7.691,11.261
873,0.000,39.672,53.691,2.137,6.719,10.600,-28.977,-10.888,-3.131,-2.126,4.912,8.592,-8.499,2.113,-2.113,0.000,0.000,6,0.016,0.091,937,1019,1221,898,7.691,11.078
874,0.000,39.760,53.735,2.137,6.561,10.507,-29.038,-10.866,-3.131,-2.115,4.850,8.673,-8.469,2.102,-2.102,0.000,0.000,6,0.016,0.090,938,1019,1220,897,7.599,10.986
875,0.000,39.848,53.757,2.126,6.415,10.407,-29.129,-10.844,-3.153,-2.093,4.838,8.668,-8.438,2.090,-2.090,0.000,0.000,6,0.016,0.089,937,1018,1220,896,7.324,10.895
876,0.000,39.936,53.801,2.115,6.200,10.287,-29.282,-10.844,-3.153,-2.104,4.806,8.613,-8.316,2.077,-2.077,0.000,0.000,6,0.016,0.087,938,1018,1220,897,6.775,10.712
877,0.000,40.024,53.845,2.115,6.288,10.222,-29.435,-10.844,-3.175,-2.093,4.723,8.570,-8.591,2.063,-2.063,0.000,0.000,6,0.016,0.087,938,1018,1220,898,6.683,10.529
878,0.000,40.112,53.889,2.093,6.743,10.227,-29.191,-10.822,-3.175,-2.071,4.749,8.599,-8.774,2.049,-2.049,0.000,0.000,6,0.015,0.086,938,1018,1221,896,6.500,10.437
879,0.000,40.222,53.933,2.071,6.774,10.107,-28.641,-10.822,-3.197,-2.038,4.854,8.534,-8.621,2.036,-2.036,0.000,0.000,6,0.016,0.085,937,1019,1220,894,6.409,10.346
880,0.000,40.309,53.977,2.060,6.633,9.937,-28.305,-10.800,-3.197,-2.049,4.919,8.458,-8.408,2.021,-2.021,0.000,0.000,6,0.015,0.084,937,1019,1220,896,6.134,10.254
881,0.000,40.397,54.021,2.038,6.612,9.868,-27.939,-10.800,-3.219,-2.005,4.914,8.474,-8.499,2.006,-2.006,0.000,0.000,6,0.015,0.083,938,1019,1220,897,6.226,10.163
882,0.000,40.507,54.065,2.038,6.497,9.784,-27.665,-10.778,-3.219,-1.994,4.993,8.474,-8.530,1.992,-1.992,0.000,0.000,6,0.014,0.081,938,1018,1220,896,6.683,10.163
883,0.000,40.595,54.087,2.038,6.111,9.609,-27.573,-10.778,-3.241,-1.983,5.089,8.460,-8.438,1.976,-1.976,0.000,0.000,6,0.014,0.080,938,1019,1220,896,6.775,10.071
884,0.000,40.683,54.152,2.005,5.781,9.480,-27.543,-10.756,-3.263,-1.961,5.163,8.465,-8.194,1.960,-1.960,0.000,0.000,6,0.014,0.079,938,1019,1220,896,6.592,9.888
885,0.000,40.771,54.196,2.005,5.697,9.423,-27.512,-10.756,-3.263,-1.972,5.249,8.455,-8.133,1.944,-1.944,0.000,0.000,6,0.013,0.079,939,1019,1220,896,6.592,9.796
886,0.000,40.859,54.240,1.983,5.616,9.351,-27.512,-10.734,-3.285,-1.939,5.221,8.438,-8.225,1.930,-1.930,0.000,0.000,6,0.013,0.080,938,1019,1220,894,6.409,9.705
887,0.000,40.947,54.284,1.950,5.683,9.310,-27.359,-10.734,-3.307,-1.939,5.225,8.446,-8.072,1.917,-1.917,0.000,0.000,6,0.014,0.080,938,1019,1220,894,6.043,9.522
888,0.000,41.035,54.328,1.939,6.023,9.334,-26.810,-10.712,-3.307,-1.928,5.166,8.388,-8.042,1.903,-1.903,0.000,0.000,6,0.013,0.080,938,1018,1220,894,5.768,9.430
889,0.000,41.122,54.372,1.939,6.107,9.322,-26.322,-10.690,-3.329,-1.917,5.180,8.297,-7.828,1.892,-1.892,0.000,0.000,6,0.012,0.080,939,1019,1220,894,5.676,9.339
890,0.000,41.232,54.416,1.906,5.795,9.128,-26.108,-10.690,-3.329,-1.884,5.398,8.235,-7.248,1.883,-1.883,0.000,0.000,6,0.013,0.081,938,1019,1220,894,5.585,9.339
891,0.000,41.320,54.460,1.895,5.616,8.956,-26.108,-10.668,-3.351,-1.862,5.465,8.223,-6.699,1.874,-1.874,0.000,0.000,6,0.012,0.081,939,1019,1220,894,5.676,9.247
892,0.000,41.386,54.504,1.895,5.455,8.965,-26.322,-10.646,-3.351,-1.873,5.527,8.252,-6.119,1.866,-1.866,0.000,0.000,6,0.012,0.081,939,1019,1220,894,5.951,9.247
893,0.000,41.474,54.548,1.884,5.008,8.891,-26.841,-10.624,-3.373,-1.862,5.632,8.249,-5.478,1.859,-1.859,0.000,0.000,6,0.012,0.080,939,1019,1220,894,6.043,9.247
894,0.000,41.540,54.570,1.862,4.680,8.805,-27.420,-10.602,-3.373,-1.862,5.611,8.237,-5.173,1.852,-1.852,0.000,0.000,6,0.012,0.079,939,1019,1219,894,5.768,9.064
895,0.000,41.606,54.614,1.873,4.703,8.769,-28.031,-10.580,-3.395,-1.840,5.441,8.292,-4.746,1.843,-1.843,0.000,0.000,6,0.012,0.077,939,1019,1220,894,5.585,8.881
896,0.000,41.694,54.658,1.851,4.797,8.728,-28.580,-10.558,-3.395,-1.840,5.297,8.319,-4.227,1.832,-1.832,0.000,0.000,6,0.012,0.076,939,1019,1220,894,5.402,8.881
897,0.000,41.760,54.680,1.862,4.929,8.678,-28.885,-10.536,-3.395,-1.818,5.237,8.264,-3.983,1.821,-1.821,0.000,0.000,6,0.012,0.076,940,1019,1219,893,4.944,8.881
898,0.000,41.826,54.724,1.840,5.075,8.623,-29.007,-10.536,-3.417,-1.807,5.101,8.221,-3.494,1.810,-1.810,0.000,0.000,6,0.012,0.076,939,1019,1220,894,4.669,8.789
899,0.000,41.913,54.746,1.818,5.261,8.613,-28.977,-10.514,-3.417,-1.807,4.972,8.211,-3.311,1.800,-1.800,0.000,0.000,6,0.012,0.075,939,1019,1221,893,4.669,8.698
900,0.000,41.979,54.790,1.829,5.398,8.556,-28.824,-10.492,-3.417,-1.818,4.964,8.201,-3.098,1.789,-1.789,0.000,0.000,6,0.013,0.075,939,1019,1219,893,4.761,8.698
901,0.000,42.067,54.812,1.818,5.410,8.455,-28.580,-10.492,-3.439,-1.774,4.979,8.154,-2.731,1.778,-1.778,0.000,0.000,6,0.013,0.074,939,1019,1219,893,4.852,8.606
902,0.000,42.155,54.856,1.796,5.331,8.443,-28.244,-10.470,-3.439,-1.796,5.034,8.151,-2.365,1.767,-1.767,0.000,0.000,6,0.013,0.074,939,1019,1221,893,5.035,8.606
903,0.000,42.221,54.900,1.774,5.122,8.398,-28.061,-10.470,-3.439,-1.763,5.103,8.132,-1.968,1.755,-1.755,0.000,0.000,6,0.013,0.073,938,1019,1220,893,5.219,8.606
904,0.000,42.309,54.921,1.796,5.077,8.331,-27.787,-10.448,-3.439,-1.752,5.070,8.120,-1.572,1.743,-1.743,0.000,0.000,6,0.013,0.072,939,1019,1218,893,5.310,8.515
905,0.000,42.397,54.965,1.752,5.144,8.333,-27.359,-10.448,-3.461,-1.741,5.003,8.132,-1.144,1.730,-1.730,0.000,0.000,6,0.013,0.071,939,1019,1219,892,5.402,8.423
906,0.000,42.463,55.009,1.752,5.091,8.316,-27.146,-10.426,-3.461,-1.730,4.988,8.115,-0.656,1.716,-1.716,0.000,0.000,6,0.013,0.071,939,1019,1221,892,5.310,8.423
907,0.000,42.551,55.031,1.741,5.087,8.309,-26.993,-10.404,-3.461,-1.708,4.936,8.120,-0.412,1.703,-1.703,0.000,0.000,6,0.013,0.069,939,1019,1220,892,5.035,8.331
908,0.000,42.617,55.075,1.741,5.051,8.295,-26.871,-10.404,-3.483,-1.708,4.919,8.079,-0.137,1.689,-1.689,0.000,0.000,6,0.013,0.069,939,1019,1218,893,5.035,8.331
909,0.000,42.705,55.119,1.719,5.139,8.278,-26.566,-10.404,-3.483,-1.697,4.919,8.024,0.198,1.675,-1.675,0.000,0.000,6,0.013,0.068,940,1019,1219,893,5.127,8.331
910,0.000,42.770,55.141,1.719,5.173,8.259,-26.230,-10.382,-3.483,-1.675,4.850,7.996,0.504,1.659,-1.659,0.000,0.000,6,0.014,0.067,939,1019,1219,891,5.035,8.240
911,0.000,42.858,55.185,1.686,5.125,8.269,-25.895,-10.382,-3.483,-1.653,4.818,7.988,0.809,1.644,-1.644,0.000,0.000,6,0.013,0.067,939,1019,1219,892,5.035,8.240
912,0.000,42.924,55.229,1.664,5.156,8.278,-25.803,-10.360,-3.483,-1.642,4.828,7.974,1.328,1.629,-1.629,0.000,0.000,6,0.013,0.067,939,1019,1220,893,5.035,8.240
913,0.000,43.012,55.273,1.653,5.043,8.269,-25.650,-10.360,-3.505,-1.631,4.826,7.976,1.602,1.616,-1.616,0.000,0.000,6,0.012,0.068,939,1019,1219,891,5.127,8.240
914,0.000,43.078,55.295,1.664,4.854,8.237,-25.650,-10.338,-3.505,-1.631,4.799,7.974,1.846,1.605,-1.605,0.000,0.000,6,0.012,0.068,939,1019,1219,891,5.127,8.240
915,0.000,43.166,55.339,1.642,4.847,8.249,-25.650,-10.338,-3.505,-1.621,4.761,7.952,2.243,1.594,-1.594,0.000,0.000,6,0.012,0.068,939,1018,1218,892,5.035,8.240
916,0.000,43.232,55.383,1.621,4.933,8.328,-25.559,-10.316,-3.505,-1.599,4.694,7.996,2.487,1.585,-1.585,0.000,0.000,6,0.011,0.068,939,1019,1219,892,5.127,8.240
917,0.000,43.298,55.405,1.610,4.917,8.345,-25.437,-10.316,-3.505,-1.610,4.589,8.000,2.792,1.577,-1.577,0.000,0.000,6,0.011,0.068,939,1019,1219,891,5.035,8.240
918,0.000,43.386,55.449,1.588,4.996,8.362,-25.284,-10.316,-3.505,-1.588,4.512,7.945,3.159,1.569,-1.569,0.000,0.000,6,0.011,0.068,939,1019,1219,889,4.852,8.148
919,0.000,43.452,55.493,1.610,5.113,8.400,-25.193,-10.316,-3.505,-1.555,4.483,7.955,3.403,1.561,-1.561,0.000,0.000,6,0.011,0.068,938,1019,1219,890,4.761,8.240
920,0.000,43.518,55.515,1.588,5.158,8.434,-24.918,-10.294,-3.505,-1.544,4.541,7.945,3.677,1.556,-1.556,0.000,0.000,6,0.010,0.069,939,1020,1219,891,4.852,8.240
921,0.000,43.583,55.559,1.588,5.233,8.434,-24.460,-10.294,-3.505,-1.544,4.591,7.919,4.013,1.552,-1.552,0.000,0.000,6,0.010,0.072,939,1019,1218,891,4.852,8.331
922,0.000,43.671,55.603,1.555,5.089,8.374,-24.186,-10.294,-3.505,-1.544,4.644,7.936,4.440,1.552,-1.552,0.000,0.000,6,0.009,0.073,939,1019,1219,891,4.944,8.331
923,0.000,43.737,55.625,1.566,4.929,8.297,-23.850,-10.294,-3.505,-1.544,4.735,7.972,4.593,1.555,-1.555,0.000,0.000,6,0.009,0.073,939,1019,1218,890,5.035,8.331
924,0.000,43.803,55.669,1.544,4.969,8.331,-23.545,-10.272,-3.505,-1.544,4.749,8.043,4.807,1.557,-1.557,0.000,0.000,6,0.008,0.072,938,1019,1218,890,5.127,8.423
925,0.000,43.869,55.691,1.522,4.996,8.381,-23.239,-10.272,-3.505,-1.544,4.730,8.060,5.020,1.560,-1.560,0.000,0.000,6,0.008,0.071,939,1019,1218,890,5.219,8.423
926,0.000,43.935,55.734,1.544,4.859,8.312,-23.056,-10.272,-3.527,-1.555,4.737,8.041,5.081,1.560,-1.560,0.000,0.000,6,0.009,0.070,939,1019,1218,890,5.035,8.331
927,0.000,44.001,55.756,1.533,4.902,8.309,-22.934,-10.250,-3.527,-1.544,4.665,8.077,5.051,1.559,-1.559,0.000,0.000,6,0.008,0.068,939,1019,1219,890,4.852,8.240
928,0.000,44.067,55.800,1.555,5.072,8.300,-22.629,-10.250,-3.527,-1.555,4.634,8.106,5.081,1.557,-1.557,0.000,0.000,6,0.007,0.068,939,1019,1218,890,4.944,8.331
929,0.000,44.133,55.822,1.555,5.111,8.257,-22.324,-10.250,-3.527,-1.555,4.608,8.130,4.990,1.555,-1.555,0.000,0.000,6,0.008,0.067,938,1020,1218,890,4.944,8.331
930,0.000,44.199,55.866,1.522,5.168,8.266,-21.866,-10.250,-3.527,-1.533,4.555,8.163,4.929,1.552,-1.552,0.000,0.000,6,0.008,0.067,938,1019,1218,890,4.852,8.240
931,0.000,44.265,55.910,1.566,5.302,8.319,-21.225,-10.250,-3.527,-1.533,4.560,8.216,4.868,1.550,-1.572,0.000,0.000,6,0.009,0.066,938,1019,1218,890,4.852,8.240
932,0.000,44.352,55.932,1.566,5.374,8.309,-20.523,-10.250,-3.527,-1.522,4.483,8.271,4.715,1.544,-1.563,0.000,0.000,6,0.009,0.066,938,1020,1219,889,5.035,8.240
933,0.000,44.418,55.976,1.555,5.427,8.257,-19.760,-10.250,-3.549,-1.555,4.478,8.300,4.562,1.539,-1.556,0.000,0.000,6,0.011,0.065,938,1019,1218,889,5.035,8.240
934,0.000,44.484,56.020,1.544,5.575,8.247,-18.875,-10.272,-3.549,-1.566,4.545,8.297,4.379,1.530,-1.548,0.000,0.000,6,0.011,0.064,938,1019,1218,889,5.127,8.240
935,0.000,44.572,56.042,1.533,5.498,8.201,-18.143,-10.272,-3.549,-1.544,4.533,8.331,4.288,1.520,-1.539,0.000,0.000,6,0.012,0.063,938,1019,1219,889,5.219,8.240
936,0.000,44.638,56.086,1.522,5.292,8.151,-17.411,-10.272,-3.571,-1.533,4.610,8.415,4.166,1.508,-1.528,0.000,0.000,6,0.012,0.062,940,1019,1218,889,5.310,8.240
937,0.000,44.704,56.130,1.544,5.170,8.091,-16.648,-10.272,-3.571,-1.533,4.648,8.458,3.983,1.496,-1.518,0.000,0.000,6,0.012,0.061,937,1020,1219,889,5.402,8.240
938,0.000,44.792,56.174,1.522,5.168,8.060,-16.037,-10.294,-3.571,-1.511,4.670,8.460,3.952,1.484,-1.507,0.000,0.000,6,0.012,0.061,938,1019,1220,889,5.493,8.240
939,0.000,44.858,56.218,1.478,5.261,8.079,-15.305,-10.294,-3.593,-1.511,4.802,8.482,4.013,1.470,-1.495,0.000,0.000,6,0.012,0.061,938,1019,1218,889,5.493,8.148
940,0.000,44.924,56.262,1.511,5.285,8.010,-14.572,-10.294,-3.593,-1.500,4.794,8.534,3.922,1.458,-1.458,0.000,0.000,6,0.011,0.061,938,1019,1219,889,5.219,8.148
941,0.000,45.012,56.306,1.489,5.374,8.017,-13.901,-10.294,-3.615,-1.489,4.850,8.551,3.861,1.448,-1.448,0.000,0.000,6,0.011,0.061,937,1019,1220,889,5.127,8.057
942,0.000,45.078,56.350,1.467,5.551,8.118,-13.138,-10.294,-3.615,-1.445,5.008,8.565,4.013,1.439,-1.439,0.000,0.000,6,0.011,0.060,937,1019,1219,888,5.127,8.057
943,0.000,45.165,56.394,1.456,5.479,8.096,-12.253,-10.294,-3.615,-1.423,5.053,8.580,4.257,1.428,-1.428,0.000,0.000,6,0.011,0.059,937,1020,1218,888,5.219,8.057
944,0.000,45.231,56.438,1.456,5.319,7.976,-11.307,-10.294,-3.637,-1.445,5.060,8.518,4.410,1.417,-1.417,0.000,0.000,6,0.011,0.059,938,1019,1219,888,5.219,7.965
945,0.000,45.297,56.482,1.456,5.333,7.957,-10.513,-10.294,-3.637,-1.434,5.108,8.520,4.776,1.406,-1.431,0.000,0.000,6,0.010,0.060,938,1020,1220,889,5.310,7.965
946,0.000,45.385,56.526,1.423,5.134,7.957,-9.903,-10.294,-3.637,-1.401,5.304,8.563,5.478,1.398,-1.421,0.000,0.000,6,0.009,0.060,937,1019,1220,888,5.493,8.057
947,0.000,45.451,56.569,1.412,4.862,7.873,-9.506,-10.294,-3.659,-1.412,5.441,8.599,5.875,1.392,-1.413,0.000,0.000,6,0.009,0.062,937,1019,1218,889,5.402,8.057
948,0.000,45.495,56.613,1.401,4.850,7.794,-9.354,-10.272,-3.659,-1.412,5.431,8.649,6.210,1.389,-1.408,0.000,0.000,6,0.009,0.064,939,1020,1219,888,5.310,7.965
949,0.000,45.561,56.657,1.390,4.778,7.806,-9.049,-10.272,-3.659,-1.412,5.419,8.676,6.699,1.389,-1.406,0.000,0.000,6,0.009,0.066,937,1020,1219,888,5.310,7.874
950,0.000,45.627,56.701,1.401,4.739,7.835,-8.804,-10.272,-3.659,-1.401,5.228,8.755,7.340,1.392,-1.406,0.000,0.000,6,0.008,0.066,937,1019,1219,888,5.127,7.874
951,0.000,45.671,56.723,1.390,4.948,7.780,-8.377,-10.272,-3.659,-1.379,5.180,8.783,7.645,1.395,-1.406,0.000,0.000,6,0.008,0.067,937,1019,1219,889,4.852,7.874
952,0.000,45.737,56.767,1.379,5.142,7.730,-7.614,-10.250,-3.659,-1.390,5.209,8.807,7.858,1.399,-1.407,0.000,0.000,6,0.007,0.066,937,1020,1219,888,4.761,7.782
953,0.000,45.803,56.811,1.390,5.216,7.727,-7.004,-10.250,-3.659,-1.401,5.178,8.881,8.072,1.403,-1.408,0.000,0.000,6,0.007,0.066,936,1019,1219,886,4.761,7.782
954,0.000,45.869,56.855,1.390,5.228,7.742,-6.455,-10.250,-3.659,-1.390,5.192,8.934,8.621,1.408,-1.408,0.000,0.000,6,0.006,0.065,936,1019,1219,888,4.669,7.782
955,0.000,45.935,56.877,1.390,5.266,7.723,-5.905,-10.250,-3.659,-1.390,5.194,8.929,8.927,1.407,-1.407,0.000,0.000,6,0.006,0.065,937,1019,1220,889,4.944,7.691
956,0.000,45.978,56.921,1.401,5.273,7.691,-5.447,-10.250,-3.659,-1.401,5.228,8.934,9.110,1.406,-1.406,0.000,0.000,6,0.006,0.064,936,1019,1220,887,5.127,7.691
957,0.000,46.044,56.965,1.401,5.180,7.694,-4.715,-10.250,-3.659,-1.412,5.357,8.977,9.293,1.404,-1.404,0.000,0.000,6,0.006,0.063,936,1020,1219,886,5.127,7.691
958,0.000,46.110,56.987,1.401,5.161,7.696,-4.135,-10.250,-3.659,-1.401,5.371,9.016,9.537,1.401,-1.401,0.000,0.000,6,0.006,0.063,936,1019,1219,887,5.219,7.691
959,0.000,46.154,57.031,1.401,5.118,7.620,-3.647,-10.250,-3.659,-1.390,5.379,9.006,9.781,1.398,-1.398,0.000,0.000,6,0.006,0.063,936,1020,1219,887,5.219,7.691
960,0.000,46.220,57.075,1.390,5.020,7.526,-3.006,-10.228,-3.659,-1.379,5.470,9.004,10.025,1.395,-1.395,0.000,0.000,6,0.007,0.064,936,1019,1219,887,5.219,7.691
961,0.000,46.264,57.097,1.401,4.993,7.519,-2.579,-10.228,-3.659,-1.390,5.496,9.011,10.269,1.393,-1.393,0.000,0.000,6,0.007,0.062,936,1020,1219,887,5.127,7.691
962,0.000,46.308,57.141,1.379,5.072,7.545,-2.182,-10.228,-3.659,-1.379,5.484,9.044,10.513,1.389,-1.389,0.000,0.000,6,0.007,0.062,936,1019,1219,887,5.127,7.691
963,0.000,46.374,57.163,1.379,5.005,7.524,-1.816,-10.228,-3.680,-1.368,5.539,9.068,10.758,1.385,-1.385,0.000,0.000,6,0.008,0.061,935,1019,1219,887,5.035,7.599
964,0.000,46.418,57.207,1.401,4.871,7.510,-1.236,-10.228,-3.680,-1.379,5.556,9.075,10.758,1.379,-1.379,0.000,0.000,6,0.009,0.060,935,1020,1219,886,4.944,7.507
965,0.000,46.462,57.229,1.379,4.840,7.433,-0.961,-10.228,-3.680,-1.368,5.546,9.092,10.971,1.373,-1.373,0.000,0.000,6,0.010,0.059,935,1020,1219,886,4.944,7.507
966,0.000,46.506,57.273,1.368,4.890,7.407,-0.717,-10.228,-3.680,-1.368,5.534,9.099,11.154,1.366,-1.366,0.000,0.000,6,0.010,0.058,935,1019,1219,886,5.035,7.507
967,0.000,46.550,57.295,1.379,5.000,7.438,-0.443,-10.206,-3.680,-1.357,5.527,9.068,11.368,1.356,-1.356,0.000,0.000,6,0.010,0.057,935,1019,1219,887,4.944,7.507
968,0.000,46.616,57.339,1.379,4.957,7.414,0.000,-10.206,-3.680,-1.335,5.589,9.027,11.429,1.348,-1.348,0.000,0.000,6,0.010,0.056,935,1019,1219,886,4.852,7.507
969,0.000,46.638,57.360,1.357,4.864,7.419,0.443,-10.206,-3.680,-1.335,5.609,9.047,11.551,1.338,-1.338,0.000,0.000,6,0.010,0.055,934,1020,1219,887,4.761,7.416
970,0.000,46.682,57.382,1.357,4.838,7.361,0.595,-10.206,-3.680,-1.346,5.642,9.080,11.826,1.328,-1.328,0.000,0.000,6,0.010,0.055,934,1020,1219,886,4.852,7.324
971,0.000,46.726,57.426,1.335,4.744,7.402,0.565,-10.206,-3.680,-1.335,5.649,9.068,12.039,1.318,-1.318,0.000,0.000,6,0.010,0.054,934,1020,1219,886,4.944,7.416
972,0.000,46.770,57.448,1.335,4.787,7.450,0.839,-10.206,-3.680,-1.313,5.635,9.039,12.161,1.307,-1.307,0.000,0.000,6,0.010,0.054,934,1019,1218,886,4.944,7.324
973,0.000,46.813,57.470,1.302,4.809,7.447,1.236,-10.184,-3.680,-1.302,5.568,9.032,12.192,1.297,-1.297,0.000,0.000,6,0.010,0.053,934,1019,1219,886,4.852,7.416
974,0.000,46.857,57.514,1.302,4.914,7.498,1.877,-10.184,-3.680,-1.302,5.467,9.049,12.375,1.286,-1.286,0.000,0.000,6,0.010,0.053,934,1020,1219,886,4.761,7.324
975,0.000,46.901,57.536,1.302,5.008,7.500,2.609,-10.184,-3.680,-1.280,5.534,9.037,12.589,1.276,-1.276,0.000,0.000,6,0.010,0.052,935,1020,1218,886,4.669,7.324
976,0.000,46.923,57.558,1.313,4.933,7.447,3.006,-10.184,-3.680,-1.269,5.649,9.020,12.680,1.265,-1.265,0.000,0.000,6,0.010,0.051,933,1020,1220,886,4.761,7.416
977,0.000,46.967,57.580,1.302,4.672,7.368,3.281,-10.184,-3.680,-1.258,5.683,9.039,12.772,1.253,-1.253,0.000,0.000,6,0.009,0.051,933,1019,1219,886,4.761,7.416
978,0.000,46.989,57.602,1.280,4.512,7.428,3.281,-10.184,-3.680,-1.269,5.680,9.044,13.107,1.242,-1.242,0.000,0.000,6,0.009,0.050,933,1020,1218,886,4.852,7.416
979,0.000,47.011,57.624,1.269,4.404,7.524,3.403,-10.163,-3.680,-1.247,5.740,9.071,13.230,1.230,-1.230,0.000,0.000,6,0.008,0.050,933,1020,1218,885,4.944,7.416
980,0.000,47.033,57.646,1.247,4.316,7.565,3.342,-10.163,-3.680,-1.236,5.755,9.116,13.169,1.219,-1.219,0.000,0.000,6,0.008,0.049,933,1019,1218,886,4.852,7.416
981,0.000,47.055,57.668,1.236,4.383,7.615,3.250,-10.163,-3.680,-1.214,5.790,9.111,13.382,1.207,-1.207,0.000,0.000,6,0.008,0.049,933,1020,1218,885,4.669,7.324
982,0.000,47.077,57.690,1.225,4.483,7.615,3.220,-10.163,-3.680,-1.192,5.738,9.092,13.413,1.196,-1.196,0.000,0.000,6,0.008,0.048,933,1019,1217,885,4.486,7.416
983,0.000,47.099,57.712,1.214,4.596,7.629,3.189,-10.163,-3.680,-1.192,5.666,9.078,13.474,1.184,-1.184,0.000,0.000,6,0.008,0.048,933,1019,1218,885,4.395,7.507
984,0.000,47.121,57.712,1.203,4.586,7.651,3.128,-10.163,-3.680,-1.192,5.676,9.068,13.474,1.172,-1.172,0.000,0.000,6,0.008,0.047,933,1019,1219,885,4.303,7.507
985,0.000,47.121,57.734,1.203,4.572,7.682,3.189,-10.141,-3.680,-1.170,5.711,9.030,13.382,1.160,-1.160,0.000,0.000,6,0.008,0.047,934,1020,1218,885,4.303,7.599
986,0.000,47.143,57.734,1.170,4.567,7.684,3.281,-10.141,-3.680,-1.170,5.745,8.968,13.565,1.149,-1.149,0.000,0.000,6,0.008,0.046,933,1019,1217,886,4.395,7.599
987,0.000,47.165,57.756,1.170,4.493,7.596,3.220,-10.141,-3.680,-1.181,5.699,8.970,13.779,1.138,-1.138,0.000,0.000,6,0.008,0.047,935,1020,1217,886,4.578,7.599
988,0.000,47.165,57.756,1.159,4.481,7.596,3.220,-10.141,-3.680,-1.148,5.721,8.946,13.809,1.127,-1.127,0.000,0.000,6,0.007,0.047,933,1019,1218,884,4.578,7.599
989,0.000,47.165,57.756,1.159,4.510,7.696,3.311,-10.141,-3.680,-1.126,5.757,8.898,13.870,1.117,-1.117,0.000,0.000,6,0.007,0.046,933,1019,1218,884,4.486,7.599
990,0.000,47.165,57.778,1.137,4.548,7.744,3.311,-10.119,-3.680,-1.104,5.781,8.874,13.962,1.107,-1.107,0.000,0.000,6,0.007,0.047,933,1020,1218,885,4.486,7.599
991,0.000,47.187,57.778,1.137,4.562,7.739,3.372,-10.119,-3.680,-1.093,5.685,8.822,13.993,1.098,-1.098,0.000,0.000,6,0.007,0.046,933,1020,1217,884,4.486,7.507
992,0.000,47.187,57.778,1.126,4.581,7.771,3.647,-10.119,-3.680,-1.104,5.709,8.788,14.237,1.089,-1.089,0.000,0.000,6,0.007,0.047,933,1020,1217,884,4.395,7.507
993,0.000,47.187,57.778,1.115,4.560,7.811,3.922,-10.119,-3.680,-1.093,5.714,8.733,14.206,1.081,-1.081,0.000,0.000,6,0.007,0.046,933,1018,1217,884,4.486,7.691
994,0.000,47.187,57.778,1.082,4.490,7.830,3.983,-10.097,-3.680,-1.071,5.702,8.726,14.206,1.072,-1.072,0.000,0.000,6,0.007,0.047,933,1020,1217,885,4.486,7.691
995,0.000,47.187,57.778,1.093,4.438,7.799,4.105,-10.097,-3.680,-1.082,5.740,8.699,14.206,1.065,-1.065,0.000,0.000,6,0.008,0.047,933,1019,1217,883,4.486,7.691
996,0.000,47.187,57.778,1.071,4.524,7.809,4.349,-10.097,-3.680,-1.060,5.678,8.687,14.389,1.058,-1.058,0.000,0.000,6,0.008,0.047,932,1019,1217,882,4.578,7.691
997,0.000,47.187,57.778,1.071,4.605,7.838,4.746,-10.075,-3.680,-1.038,5.587,8.668,14.542,1.051,-1.051,0.000,0.000,6,0.008,0.046,931,1020,1217,884,4.486,7.782
998,0.000,47.187,57.778,1.071,4.557,7.809,4.959,-10.075,-3.680,-1.049,5.647,8.561,14.450,1.044,-1.044,0.000,0.000,6,0.008,0.047,933,1020,1216,885,4.486,7.782
999,0.000,47.187,57.778,1.049,4.555,7.794,5.173,-10.075,-3.680,-1.038,5.695,8.498,14.511,1.039,-1.039,0.000,0.000,6,0.009,0.046,934,1020,1216,884,4.395,7.782
1000,0.000,47.187,57.778,1.038,4.591,7.840,5.570,-10.075,-3.680,-1.049,5.685,8.529,14.786,1.031,-1.031,0.000,0.000,6,0.009,0.046,933,1020,1217,884,4.486,7.782
1001,0.000,47.165,57.778,1.027,4.548,7.885,6.058,-10.053,-3.680,-1.027,5.597,8.534,14.694,1.026,-1.026,0.000,0.000,6,0.009,0.046,933,1020,1216,883,4.578,7.782
1002,0.000,47.165,57.778,1.016,4.440,7.869,6.241,-10.053,-3.680,-0.994,5.553,8.508,14.664,1.019,-1.019,0.000,0.000,6,0.008,0.045,933,1020,1216,883,4.486,7.782
1003,0.000,47.165,57.778,1.016,4.435,7.852,6.485,-10.053,-3.680,-1.016,5.589,8.419,14.908,1.013,-1.013,0.000,0.000,6,0.009,0.045,933,1019,1216,883,4.486,7.782
1004,0.000,47.165,57.778,1.038,4.478,7.888,6.729,-10.053,-3.680,-1.005,5.544,8.405,15.000,1.006,-1.006,0.000,0.000,6,0.009,0.044,933,1020,1216,883,4.578,7.782
1005,0.000,47.165,57.778,0.994,4.519,7.914,7.034,-10.031,-3.680,-1.027,5.484,8.422,15.061,0.998,-0.998,0.000,0.000,6,0.008,0.044,933,1019,1216,883,4.486,7.874
1006,0.000,47.143,57.778,1.016,4.545,7.988,7.523,-10.031,-3.680,-0.983,5.477,8.343,15.061,0.992,-0.992,0.000,0.000,6,0.007,0.043,932,1020,1216,883,4.395,7.782
1007,0.000,47.143,57.778,1.016,4.608,8.000,8.103,-10.031,-3.680,-0.983,5.501,8.288,15.030,0.985,-0.985,0.000,0.000,6,0.007,0.043,932,1019,1215,883,4.395,7.782
1008,0.000,47.143,57.778,1.005,4.548,7.929,8.652,-10.031,-3.680,-0.961,5.491,8.278,15.152,0.977,-0.977,0.000,0.000,6,0.007,0.043,932,1020,1215,883,4.395,7.874
1009,0.000,47.143,57.778,0.994,4.574,7.933,8.988,-10.009,-3.680,-0.961,5.462,8.240,15.274,0.970,-0.970,0.000,0.000,6,0.006,0.043,932,1020,1214,883,4.486,7.874
1010,0.000,47.121,57.778,0.994,4.610,7.943,9.232,-10.009,-3.680,-0.972,5.374,8.221,15.549,0.963,-0.963,0.000,0.000,6,0.006,0.043,933,1020,1215,884,4.486,7.965
1011,0.000,47.121,57.778,0.972,4.581,7.950,9.689,-10.009,-3.680,-0.961,5.367,8.209,15.488,0.957,-0.957,0.000,0.000,6,0.006,0.044,932,1020,1214,884,4.578,7.965
1012,0.000,47.121,57.778,0.972,4.531,7.960,10.300,-10.009,-3.680,-0.961,5.336,8.192,15.427,0.952,-0.952,0.000,0.000,6,0.005,0.043,932,1019,1214,884,4.486,7.874
1013,0.000,47.099,57.778,0.972,4.550,7.933,10.849,-10.009,-3.680,-0.961,5.292,8.209,15.579,0.946,-0.946,0.000,0.000,6,0.004,0.043,932,1020,1214,884,4.486,7.874
1014,0.000,47.099,57.778,0.961,4.622,7.919,11.337,-9.987,-3.680,-0.950,5.302,8.185,15.763,0.941,-0.941,0.000,0.000,6,0.004,0.043,934,1019,1214,884,4.578,7.874
1015,0.000,47.099,57.778,0.961,4.596,7.907,11.704,-9.987,-3.680,-0.950,5.245,8.158,15.763,0.936,-0.936,0.000,0.000,6,0.003,0.043,932,1020,1214,884,4.578,7.874
1016,0.000,47.077,57.778,0.939,4.603,7.885,12.192,-9.987,-3.680,-0.928,5.278,8.122,15.854,0.932,-0.932,0.000,0.000,6,0.003,0.042,931,1020,1214,884,4.486,7.874
1017,0.000,47.077,57.778,0.928,4.557,7.864,12.680,-9.987,-3.680,-0.928,5.271,8.118,15.885,0.925,-0.925,0.000,0.000,6,0.003,0.043,932,1019,1213,884,4.486,7.874
1018,0.000,47.055,57.778,0.906,4.510,7.823,13.230,-9.987,-3.680,-0.906,5.218,8.156,16.037,0.921,-0.921,0.000,0.000,6,0.002,0.043,932,1020,1212,885,4.578,7.874
1019,0.000,47.055,57.778,0.939,4.567,7.768,13.840,-9.987,-3.680,-0.917,5.223,8.127,16.312,0.916,-0.916,0.000,0.000,6,0.002,0.043,932,1020,1213,885,4.578,7.874
1020,0.000,47.033,57.778,0.906,4.519,7.672,14.176,-9.987,-3.680,-0.906,5.221,8.089,16.495,0.911,-0.911,0.000,0.000,6,0.001,0.044,931,1020,1213,885,4.578,7.874
1021,0.000,47.033,57.756,0.906,4.529,7.677,14.603,-9.987,-3.680,-0.917,5.180,8.099,16.403,0.909,-0.909,0.000,0.000,6,0.001,0.045,931,1020,1211,886,4.486,7.782
1022,0.000,47.011,57.756,0.928,4.495,7.706,15.152,-9.965,-3.680,-0.884,5.161,8.139,16.342,0.907,-0.907,0.000,0.000,6,0.000,0.046,931,1020,1212,885,4.486,7.782
1023,0.000,47.011,57.756,0.906,4.447,7.684,15.885,-9.965,-3.680,-0.895,5.197,8.113,16.617,0.907,-0.907,0.000,0.000,6,0.001,0.046,931,1020,1214,886,4.486,7.691
1024,0.000,46.989,57.756,0.906,4.474,7.665,16.251,-9.965,-3.680,-0.895,5.125,8.110,16.892,0.907,-0.907,0.000,0.000,6,0.002,0.045,931,1020,1213,886,4.486,7.599
1025,0.000,46.967,57.756,0.884,4.454,7.596,16.464,-9.965,-3.680,-0.895,5.111,8.089,17.136,0.905,-0.905,0.000,0.000,6,0.004,0.044,931,1020,1210,887,4.486,7.599
1026,0.000,46.967,57.756,0.906,4.443,7.536,17.105,-9.965,-3.680,-0.906,5.168,8.039,17.166,0.903,-0.903,0.000,0.000,6,0.005,0.044,932,1019,1211,887,4.486,7.691
1027,0.000,46.945,57.756,0.895,4.426,7.471,17.746,-9.965,-3.680,-0.895,5.144,8.053,17.319,0.900,-0.900,0.000,0.000,6,0.006,0.044,931,1020,1212,886,4.395,7.599
1028,0.000,46.923,57.756,0.895,4.419,7.426,18.235,-9.965,-3.680,-0.895,5.166,8.072,17.502,0.899,-0.899,0.000,0.000,6,0.007,0.043,931,1019,1211,886,4.395,7.599
