loopCnt,assist_level,thighDeg_RH,incPosDeg_RH,MotorActCurrent_RH,accX_Calib_RH,accY_Calib_RH,gyroZ_Calib_RH,thighDeg_LH,incPosDeg_LH,MotorActCurrent_LH,accX_Calib_LH,accY_Calib_LH,gyroZ_Calib_LH,u_RH,u_LH,Pvector_ref_RH,Pvector_ref_LH,extension_control_mode,emg_R1,emg_L1,fsr_R1,fsr_R2,fsr_L1,fsr_L2,free_var1,free_var2
200,0.000,-6.889,16.732,-0.005,2.551,9.470,-0.504,-4.296,13.854,-0.005,2.575,9.648,-0.534,0.000,0.000,0.000,0.000,0,-0.002,0.010,784,1048,1257,946,2.655,9.430
201,0.000,-6.889,16.732,-0.005,2.541,9.509,-0.534,-4.296,13.854,-0.005,2.594,9.664,-0.443,0.000,0.000,0.000,0.000,0,-0.001,0.009,784,1048,1263,944,2.655,9.430
202,0.000,-6.911,16.732,0.005,2.599,9.514,-0.595,-4.296,13.854,0.000,2.580,9.698,-0.351,0.000,0.000,0.000,0.000,0,-0.002,0.010,785,1048,1260,944,2.564,9.430
203,0.000,-6.911,16.732,0.000,2.623,9.518,-0.656,-4.296,13.854,0.005,2.577,9.669,-0.198,0.000,0.000,0.000,0.000,0,-0.002,0.010,784,1049,1259,945,2.472,9.430
204,0.000,-6.932,16.732,0.000,2.628,9.523,-0.656,-4.296,13.854,-0.005,2.563,9.645,-0.473,0.000,0.000,0.000,0.000,0,-0.002,0.010,783,1048,1263,945,2.472,9.430
205,0.000,-6.932,16.732,0.000,2.597,9.504,-0.504,-4.296,13.854,-0.016,2.537,9.660,-0.595,0.000,0.000,0.000,0.000,0,-0.002,0.009,784,1047,1263,943,2.564,9.430
206,0.000,-6.954,16.732,0.000,2.570,9.490,-0.595,-4.296,13.854,0.000,2.606,9.664,-0.473,0.000,0.000,0.000,0.000,0,-0.002,0.011,784,1048,1261,946,2.564,9.430
207,0.000,-6.954,16.732,0.000,2.565,9.475,-0.748,-4.296,13.854,0.005,2.580,9.686,-0.351,0.000,0.000,0.000,0.000,0,-0.002,0.010,784,1048,1258,945,2.564,9.522
208,0.000,-6.976,16.732,0.000,2.611,9.502,-0.626,-4.296,13.854,-0.005,2.558,9.705,-0.443,0.000,0.000,0.000,0.000,0,-0.002,0.010,784,1048,1261,942,2.564,9.430
209,0.000,-6.976,16.732,-0.016,2.623,9.499,-0.504,-4.296,13.854,0.005,2.599,9.652,-0.717,0.000,0.000,0.000,0.000,0,-0.001,0.010,787,1048,1261,946,2.564,9.430
210,0.000,-6.976,16.732,0.005,2.623,9.497,-0.443,-4.296,13.854,0.000,2.599,9.616,-0.809,0.000,0.000,0.000,0.000,0,-0.002,0.010,784,1051,1260,948,2.564,9.430
211,0.000,-6.998,16.732,0.000,2.652,9.463,-0.565,-4.296,13.854,-0.016,2.594,9.593,-0.595,0.000,0.000,0.000,0.000,0,-0.002,0.011,784,1048,1260,949,2.564,9.430
212,0.000,-6.998,16.732,-0.005,2.640,9.432,-0.687,-4.296,13.854,0.005,2.573,9.631,-0.504,0.000,0.000,0.000,0.000,0,-0.002,0.010,784,1048,1260,940,2.564,9.430
213,0.000,-6.998,16.732,0.005,2.664,9.509,-0.656,-4.296,13.854,0.005,2.546,9.664,-0.626,0.000,0.000,0.000,0.000,0,-0.001,0.010,784,1048,1261,940,2.564,9.430
214,0.000,-6.998,16.732,-0.005,2.573,9.504,-0.626,-4.296,13.854,0.000,2.623,9.638,-0.565,0.000,0.000,0.000,0.000,0,-0.002,0.010,789,1049,1261,944,2.564,9.430
215,0.000,-7.020,16.732,0.000,2.489,9.458,-0.687,-4.296,13.854,0.000,2.630,9.621,-0.473,0.000,0.000,0.000,0.000,0,-0.002,0.010,784,1046,1260,949,2.564,9.430
216,0.000,-7.020,16.732,0.005,2.561,9.454,-0.595,-4.274,13.854,0.005,2.616,9.638,-0.504,0.000,0.000,0.000,0.000,0,-0.001,0.007,784,1048,1260,947,2.655,9.430
217,0.000,-7.042,16.732,0.000,2.613,9.470,-0.565,-4.274,13.854,0.000,2.623,9.657,-0.473,0.000,0.000,0.000,0.000,0,-0.001,0.010,785,1048,1260,943,2.564,9.430
218,0.000,-7.042,16.732,0.005,2.587,9.473,-0.687,-4.274,13.854,-0.005,2.589,9.636,-0.534,0.000,0.000,0.000,0.000,0,-0.002,0.009,784,1048,1260,944,2.472,9.430
219,0.000,-7.042,16.732,0.005,2.592,9.478,-0.778,-4.274,13.854,0.000,2.606,9.640,-0.443,0.000,0.000,0.000,0.000,0,-0.002,0.010,782,1048,1261,945,2.472,9.430
220,0.000,-7.064,16.732,-0.016,2.628,9.470,-0.748,-4.274,13.854,-0.005,2.661,9.676,-0.473,0.000,0.000,0.000,0.000,0,-0.000,0.009,784,1048,1261,945,2.564,9.430
221,0.000,-7.064,16.732,0.000,2.563,9.478,-0.656,-4.274,13.854,0.000,2.628,9.660,-0.717,0.000,0.000,0.000,0.000,0,-0.001,0.009,785,1049,1260,945,2.564,9.430
222,0.000,-7.064,16.732,-0.005,2.575,9.525,-0.626,-4.252,13.854,0.000,2.597,9.628,-0.748,0.000,0.000,0.000,0.000,0,-0.004,0.009,784,1049,1261,945,2.564,9.430
223,0.000,-7.086,16.732,-0.016,2.570,9.502,-0.626,-4.252,13.854,0.005,2.656,9.626,-0.717,0.000,0.000,0.000,0.000,0,-0.003,0.009,784,1048,1261,945,2.564,9.430
224,0.000,-7.086,16.732,0.000,2.565,9.485,-0.809,-4.252,13.854,-0.005,2.714,9.602,-0.687,0.000,0.000,0.000,0.000,0,-0.002,0.009,783,1048,1261,945,2.564,9.430
225,0.000,-7.108,16.732,0.000,2.577,9.458,-0.778,-4.230,13.854,0.000,2.676,9.626,-0.595,0.000,0.000,0.000,0.000,0,-0.000,0.009,784,1049,1260,946,2.564,9.522
226,0.000,-7.108,16.732,0.005,2.589,9.458,-0.717,-4.230,13.854,0.005,2.625,9.648,-0.473,0.000,0.000,0.000,0.000,0,-0.002,0.009,786,1049,1261,946,2.564,9.430
227,0.000,-7.108,16.732,-0.005,2.625,9.487,-0.748,-4.230,13.854,0.005,2.601,9.607,-0.534,0.000,0.000,0.000,0.000,0,-0.001,0.009,784,1047,1261,946,2.564,9.430
228,0.000,-7.108,16.732,0.005,2.647,9.499,-0.748,-4.230,13.854,0.016,2.606,9.619,-0.595,0.000,0.000,0.000,0.000,0,-0.001,0.009,784,1049,1261,945,2.564,9.430
229,0.000,-7.108,16.732,0.000,2.661,9.492,-0.870,-4.230,13.854,0.005,2.649,9.628,-0.717,0.000,0.000,0.000,0.000,0,-0.001,0.009,784,1049,1262,945,2.564,9.430
230,0.000,-7.108,16.732,-0.005,2.623,9.485,-0.778,-4.208,13.854,-0.005,2.613,9.616,-0.565,0.000,0.000,0.000,0.000,0,-0.001,0.009,784,1049,1260,945,2.564,9.430
231,0.000,-7.130,16.732,0.005,2.635,9.490,-0.626,-4.208,13.854,-0.016,2.625,9.631,-0.504,0.000,0.000,0.000,0.000,0,-0.001,0.009,781,1049,1259,946,2.564,9.430
232,0.000,-7.130,16.732,0.000,2.592,9.473,-0.687,-4.208,13.854,0.000,2.630,9.631,-0.687,0.000,0.000,0.000,0.000,0,-0.001,0.009,784,1046,1261,945,2.655,9.430
233,0.000,-7.130,16.732,0.000,2.563,9.485,-0.809,-4.208,13.854,0.000,2.597,9.643,-0.748,0.000,0.000,0.000,0.000,0,-0.001,0.010,784,1049,1261,945,2.564,9.430
234,0.000,-7.130,16.732,0.000,2.604,9.458,-0.809,-4.208,13.854,0.000,2.640,9.619,-0.687,0.000,0.000,0.000,0.000,0,-0.001,0.009,784,1049,1260,945,2.564,9.430
235,0.000,-7.152,16.732,0.000,2.597,9.442,-0.900,-4.186,13.854,0.000,2.652,9.621,-0.534,0.000,0.000,0.000,0.000,0,-0.001,0.009,784,1049,1260,945,2.564,9.430
236,0.000,-7.152,16.732,-0.005,2.599,9.446,-0.748,-4.186,13.854,0.000,2.642,9.643,-0.595,0.000,0.000,0.000,0.000,0,-0.001,0.009,786,1049,1262,945,2.564,9.430
237,0.000,-7.152,16.732,0.005,2.647,9.502,-0.870,-4.186,13.854,0.005,2.616,9.631,-0.626,0.000,0.000,0.000,0.000,0,-0.001,0.009,784,1053,1259,944,2.564,9.430
238,0.000,-7.152,16.732,0.005,2.589,9.492,-0.809,-4.186,13.854,0.000,2.589,9.602,-0.778,0.000,0.000,0.000,0.000,0,-0.001,0.011,784,1049,1257,946,2.564,9.430
239,0.000,-7.152,16.732,0.005,2.580,9.473,-0.687,-4.186,13.854,-0.005,2.601,9.636,-0.778,0.000,0.000,0.000,0.000,0,-0.001,0.009,783,1049,1262,946,2.564,9.430
240,0.000,-7.152,16.732,0.000,2.606,9.442,-0.778,-4.186,13.854,0.005,2.637,9.657,-0.748,0.000,0.000,0.000,0.000,0,-0.001,0.009,784,1049,1259,944,2.564,9.430
241,0.000,-7.174,16.732,0.005,2.613,9.502,-0.839,-4.186,13.854,-0.005,2.623,9.650,-0.717,0.000,0.000,0.000,0.000,0,-0.001,0.009,784,1049,1256,946,2.564,9.430
242,0.000,-7.174,16.732,0.000,2.606,9.530,-0.717,-4.186,13.854,0.005,2.637,9.662,-0.656,0.000,0.000,0.000,0.000,0,-0.001,0.010,784,1049,1256,947,2.564,9.430
243,0.000,-7.174,16.732,0.000,2.609,9.530,-0.839,-4.164,13.854,0.005,2.649,9.640,-0.626,0.000,0.000,0.000,0.000,0,-0.001,0.010,783,1049,1260,946,2.564,9.430
244,0.000,-7.174,16.732,-0.005,2.623,9.494,-0.809,-4.164,13.854,0.016,2.637,9.638,-0.626,0.000,0.000,0.000,0.000,0,-0.001,0.010,784,1050,1262,944,2.564,9.430
245,0.000,-7.174,16.732,0.000,2.601,9.482,-0.748,-4.164,13.854,0.000,2.673,9.621,-0.717,0.000,0.000,0.000,0.000,0,-0.001,0.010,784,1049,1263,944,2.564,9.522
246,0.000,-7.174,16.732,-0.005,2.630,9.533,-0.931,-4.164,13.854,0.000,2.659,9.643,-0.748,0.000,0.000,0.000,0.000,0,-0.001,0.010,784,1049,1259,947,2.564,9.522
247,0.000,-7.196,16.732,0.000,2.642,9.530,-0.961,-4.142,13.854,0.000,2.649,9.674,-0.656,0.000,0.000,0.000,0.000,0,-0.001,0.009,783,1049,1261,942,2.564,9.430
248,0.000,-7.196,16.732,0.005,2.625,9.528,-0.839,-4.142,13.832,0.000,2.613,9.672,-0.595,0.000,0.000,0.000,0.000,0,-0.001,0.009,784,1049,1261,947,2.564,9.430
249,0.000,-7.196,16.732,-0.016,2.630,9.497,-0.778,-4.142,13.832,-0.005,2.561,9.652,-0.626,0.000,0.000,0.000,0.000,0,-0.001,0.010,784,1050,1261,950,2.564,9.522
250,0.000,-7.196,16.732,0.000,2.628,9.473,-0.717,-4.164,13.832,0.000,2.573,9.621,-0.687,0.000,0.000,0.000,0.000,0,-0.002,0.009,784,1049,1261,949,2.564,9.522
251,0.000,-7.196,16.732,0.005,2.573,9.499,-0.717,-4.164,13.832,0.000,2.673,9.619,-0.748,0.000,0.000,0.000,0.000,0,-0.001,0.010,784,1049,1261,941,2.564,9.522
252,0.000,-7.196,16.732,0.005,2.527,9.506,-0.565,-4.142,13.832,0.000,2.680,9.660,-0.717,0.000,0.000,0.000,0.000,0,-0.001,0.009,784,1049,1261,940,2.564,9.430
253,0.000,-7.218,16.732,0.000,2.594,9.509,-0.626,-4.142,13.832,0.000,2.654,9.636,-0.687,0.000,0.000,0.000,0.000,0,-0.001,0.010,786,1050,1261,949,2.564,9.430
254,0.000,-7.218,16.732,0.000,2.599,9.528,-0.687,-4.142,13.832,-0.005,2.618,9.621,-0.565,0.000,0.000,0.000,0.000,0,-0.001,0.009,784,1045,1261,948,2.564,9.430
255,0.000,-7.218,16.732,-0.005,2.561,9.549,-0.595,-4.142,13.832,0.000,2.611,9.624,-0.595,0.000,0.000,0.000,0.000,0,-0.001,0.010,784,1049,1261,944,2.472,9.430
256,0.000,-7.240,16.732,0.000,2.585,9.533,-0.687,-4.142,13.832,-0.005,2.625,9.619,-0.748,0.000,0.000,0.000,0.000,0,-0.002,0.010,783,1049,1261,944,2.564,9.430
257,0.000,-7.240,16.732,0.005,2.597,9.509,-0.656,-4.142,13.832,0.000,2.582,9.650,-0.748,0.000,0.000,0.000,0.000,0,-0.003,0.010,784,1050,1261,945,2.564,9.522
258,0.000,-7.240,16.732,-0.005,2.620,9.504,-0.748,-4.142,13.832,0.005,2.573,9.693,-0.717,0.000,0.000,0.000,0.000,0,-0.003,0.010,782,1050,1261,946,2.472,9.522
259,0.000,-7.240,16.732,-0.005,2.640,9.528,-0.870,-4.142,13.832,0.005,2.640,9.705,-0.717,0.000,0.000,0.000,0.000,0,-0.002,0.010,784,1048,1261,946,2.564,9.522
260,0.000,-7.240,16.732,0.000,2.630,9.535,-0.961,-4.142,13.832,0.000,2.664,9.650,-0.839,0.000,0.000,0.000,0.000,0,-0.002,0.009,785,1050,1261,946,2.564,9.430
261,0.000,-7.240,16.732,0.005,2.632,9.506,-0.839,-4.120,13.832,-0.005,2.671,9.612,-0.839,0.000,0.000,0.000,0.000,0,-0.003,0.010,784,1052,1260,945,2.564,9.430
262,0.000,-7.240,16.732,-0.005,2.616,9.523,-0.809,-4.120,13.832,0.000,2.700,9.638,-0.748,0.000,0.000,0.000,0.000,0,-0.002,0.009,784,1050,1261,945,2.564,9.522
263,0.000,-7.240,16.732,-0.005,2.616,9.514,-0.717,-4.120,13.832,0.000,2.692,9.645,-0.534,0.000,0.000,0.000,0.000,0,-0.001,0.009,784,1050,1261,945,2.564,9.522
264,0.000,-7.262,16.732,0.005,2.582,9.509,-0.748,-4.098,13.832,-0.027,2.630,9.643,-0.595,0.000,0.000,0.000,0.000,0,-0.000,0.009,784,1050,1261,946,2.564,9.430
265,0.000,-7.262,16.732,-0.005,2.534,9.492,-0.900,-4.098,13.832,-0.005,2.637,9.633,-0.595,0.000,0.000,0.000,0.000,0,-0.002,0.010,786,1050,1261,946,2.564,9.522
266,0.000,-7.262,16.732,0.000,2.565,9.523,-0.870,-4.098,13.832,-0.005,2.637,9.619,-0.504,0.000,0.000,0.000,0.000,0,-0.002,0.010,784,1047,1260,946,2.564,9.430
267,0.000,-7.262,16.732,0.000,2.623,9.564,-0.717,-4.098,13.832,-0.005,2.561,9.669,-0.473,0.000,0.000,0.000,0.000,0,-0.002,0.009,784,1050,1261,946,2.564,9.430
268,0.000,-7.284,16.732,0.005,2.623,9.549,-0.595,-4.098,13.832,-0.005,2.599,9.655,-0.504,0.000,0.000,0.000,0.000,0,-0.002,0.010,784,1050,1262,945,2.472,9.430
269,0.000,-7.284,16.732,-0.005,2.563,9.518,-0.687,-4.098,13.832,0.000,2.628,9.614,-0.595,0.000,0.000,0.000,0.000,0,-0.002,0.009,784,1050,1260,946,2.564,9.522
270,0.000,-7.284,16.732,0.000,2.592,9.521,-0.748,-4.098,13.832,0.005,2.620,9.602,-0.656,0.000,0.000,0.000,0.000,0,-0.002,0.010,781,1050,1260,946,2.564,9.522
271,0.000,-7.284,16.732,0.000,2.632,9.564,-0.687,-4.098,13.832,0.000,2.597,9.600,-0.687,0.000,0.000,0.000,0.000,0,-0.002,0.009,784,1049,1262,946,2.564,9.522
272,0.000,-7.284,16.732,0.000,2.575,9.576,-0.687,-4.098,13.832,0.000,2.601,9.633,-0.565,0.000,0.000,0.000,0.000,0,-0.002,0.010,784,1050,1262,946,2.564,9.430
273,0.000,-7.306,16.732,-0.016,2.565,9.523,-0.839,-4.098,13.832,0.016,2.659,9.624,-0.565,0.000,0.000,0.000,0.000,0,-0.002,0.009,784,1050,1260,945,2.564,9.522
274,0.000,-7.306,16.732,0.000,2.589,9.492,-0.809,-4.098,13.832,0.005,2.644,9.600,-0.565,0.000,0.000,0.000,0.000,0,-0.002,0.010,784,1050,1260,946,2.564,9.522
275,0.000,-7.306,16.732,0.005,2.577,9.528,-0.778,-4.098,13.832,0.000,2.635,9.597,-0.626,0.000,0.000,0.000,0.000,0,-0.002,0.009,784,1050,1263,946,2.564,9.522
276,0.000,-7.306,16.732,-0.005,2.606,9.559,-0.534,-4.098,13.832,-0.005,2.625,9.607,-0.626,0.000,0.000,0.000,0.000,0,-0.002,0.010,784,1052,1260,945,2.564,9.522
277,0.000,-7.306,16.732,0.000,2.606,9.549,-0.687,-4.098,13.832,0.000,2.652,9.621,-0.534,0.000,0.000,0.000,0.000,0,-0.002,0.010,784,1050,1257,946,2.564,9.430
278,0.000,-7.328,16.732,0.005,2.597,9.566,-0.778,-4.076,13.832,0.000,2.656,9.571,-0.534,0.000,0.000,0.000,0.000,0,-0.002,0.009,784,1050,1262,947,2.564,9.522
279,0.000,-7.328,16.732,0.005,2.597,9.530,-0.565,-4.076,13.832,0.000,2.570,9.535,-0.565,0.000,0.000,0.000,0.000,0,-0.002,0.009,784,1050,1263,944,2.564,9.522
280,0.000,-7.328,16.732,0.005,2.563,9.485,-0.565,-4.076,13.832,0.000,2.582,9.547,-0.656,0.000,0.000,0.000,0.000,0,-0.002,0.009,785,1050,1259,945,2.564,9.522
281,0.000,-7.328,16.732,0.016,2.577,9.518,-0.534,-4.076,13.832,-0.005,2.609,9.561,-0.595,0.000,0.000,0.000,0.000,0,-0.002,0.009,784,1050,1256,947,2.564,9.522
282,0.000,-7.328,16.732,0.000,2.573,9.540,-0.626,-4.076,13.832,0.005,2.611,9.573,-0.565,0.000,0.000,0.000,0.000,0,-0.002,0.009,783,1050,1263,945,2.564,9.522
283,0.000,-7.350,16.732,0.000,2.604,9.566,-0.595,-4.076,13.832,0.005,2.644,9.578,-0.565,0.000,0.000,0.000,0.000,0,-0.003,0.009,784,1050,1263,944,2.564,9.430
284,0.000,-7.350,16.732,0.000,2.589,9.564,-0.595,-4.076,13.832,0.000,2.630,9.588,-0.626,0.000,0.000,0.000,0.000,0,-0.003,0.010,783,1050,1261,946,2.564,9.430
285,0.000,-7.350,16.732,0.000,2.609,9.549,-0.595,-4.076,13.832,0.016,2.647,9.581,-0.717,0.000,0.000,0.000,0.000,0,-0.002,0.009,784,1050,1259,947,2.564,9.522
286,0.000,-7.350,16.732,-0.005,2.589,9.549,-0.595,-4.076,13.832,0.000,2.599,9.626,-0.626,0.000,0.000,0.000,0.000,0,-0.002,0.009,784,1050,1260,944,2.564,9.522
287,0.000,-7.372,16.732,-0.005,2.532,9.533,-0.534,-4.076,13.832,0.005,2.618,9.621,-0.626,0.000,0.000,0.000,0.000,0,-0.001,0.009,787,1050,1262,945,2.564,9.522
288,0.000,-7.372,16.732,0.000,2.537,9.502,-0.595,-4.054,13.832,0.016,2.683,9.585,-0.717,0.000,0.000,0.000,0.000,0,-0.001,0.009,784,1051,1261,949,2.564,9.522
289,0.000,-7.372,16.732,0.000,2.532,9.525,-0.748,-4.054,13.832,-0.005,2.656,9.602,-0.626,0.000,0.000,0.000,0.000,0,-0.002,0.008,784,1050,1261,945,2.564,9.522
290,0.000,-7.394,16.732,-0.005,2.582,9.533,-0.717,-4.054,13.832,0.000,2.628,9.628,-0.534,0.000,0.000,0.000,0.000,0,-0.001,0.009,783,1050,1261,940,2.472,9.522
291,0.000,-7.394,16.732,0.000,2.573,9.506,-0.687,-4.054,13.832,0.000,2.628,9.561,-0.626,0.000,0.000,0.000,0.000,0,-0.001,0.009,784,1050,1261,948,2.472,9.430
292,0.000,-7.394,16.732,0.000,2.568,9.547,-0.626,-4.054,13.832,0.000,2.580,9.559,-0.809,0.000,0.000,0.000,0.000,0,-0.002,0.009,787,1050,1261,948,2.472,9.522
293,0.000,-7.394,16.732,-0.005,2.549,9.552,-0.504,-4.054,13.832,0.027,2.618,9.559,-0.778,0.000,0.000,0.000,0.000,0,-0.002,0.009,784,1046,1260,949,2.564,9.522
294,0.000,-7.416,16.710,0.005,2.525,9.537,-0.504,-4.054,13.832,-0.005,2.640,9.571,-0.504,0.000,0.000,0.000,0.000,0,-0.001,0.009,784,1050,1261,944,2.564,9.430
295,0.000,-7.416,16.710,0.000,2.541,9.533,-0.565,-4.054,13.832,0.005,2.654,9.549,-0.504,0.000,0.000,0.000,0.000,0,-0.001,0.009,784,1050,1261,944,2.564,9.522
296,0.000,-7.438,16.710,0.000,2.510,9.514,-0.656,-4.032,13.832,0.000,2.666,9.588,-0.534,0.000,0.000,0.000,0.000,0,-0.003,0.009,784,1051,1261,946,2.472,9.522
297,0.000,-7.438,16.710,-0.005,2.525,9.492,-0.687,-4.032,13.832,0.000,2.625,9.604,-0.595,0.000,0.000,0.000,0.000,0,-0.001,0.009,781,1050,1261,946,2.472,9.522
298,0.000,-7.438,16.710,0.000,2.582,9.528,-0.626,-4.032,13.832,0.000,2.618,9.554,-0.717,0.000,0.000,0.000,0.000,0,0.000,0.009,784,1048,1261,946,2.472,9.522
299,0.000,-7.438,16.710,0.000,2.522,9.530,-0.565,-4.032,13.832,0.005,2.592,9.559,-0.717,0.000,0.000,0.000,0.000,0,0.000,0.008,784,1050,1261,946,2.472,9.430
300,0.000,-7.460,16.710,0.005,2.530,9.514,-0.534,-4.032,13.832,0.000,2.676,9.535,-0.595,0.000,0.000,0.000,0.000,0,-0.002,0.009,784,1051,1261,946,2.472,9.430
301,0.000,-7.460,16.710,0.000,2.577,9.499,-0.626,-4.032,13.832,0.000,2.678,9.552,-0.565,0.000,0.000,0.000,0.000,0,-0.001,0.009,783,1050,1262,946,2.564,9.522
302,0.000,-7.460,16.710,0.000,2.530,9.509,-0.595,-4.010,13.832,0.016,2.616,9.569,-0.534,0.000,0.000,0.000,0.000,0,-0.000,0.009,784,1050,1262,946,2.472,9.522
303,0.000,-7.482,16.710,-0.005,2.546,9.533,-0.687,-4.010,13.832,-0.005,2.616,9.547,-0.565,0.000,0.000,0.000,0.000,0,0.000,0.009,784,1050,1262,946,2.472,9.430
304,0.000,-7.482,16.710,0.016,2.577,9.540,-0.565,-4.010,13.832,0.005,2.597,9.571,-0.595,0.000,0.000,0.000,0.000,0,-0.001,0.009,785,1050,1262,946,2.564,9.430
305,0.000,-7.482,16.710,0.000,2.561,9.521,-0.687,-4.010,13.832,0.000,2.688,9.554,-0.504,0.000,0.000,0.000,0.000,0,-0.001,0.009,784,1048,1261,946,2.472,9.430
306,0.000,-7.482,16.710,0.000,2.568,9.468,-0.656,-4.010,13.832,0.000,2.666,9.528,-0.717,0.000,0.000,0.000,0.000,0,-0.001,0.009,784,1050,1262,946,2.472,9.522
307,0.000,-7.482,16.710,0.005,2.623,9.485,-0.534,-4.010,13.832,0.000,2.642,9.564,-0.809,0.000,0.000,0.000,0.000,0,-0.001,0.009,783,1050,1262,946,2.564,9.522
308,0.000,-7.482,16.710,-0.005,2.520,9.473,-0.565,-3.988,13.832,0.000,2.702,9.571,-0.717,0.000,0.000,0.000,0.000,0,-0.001,0.009,784,1050,1260,946,2.472,9.522
309,0.000,-7.482,16.710,0.000,2.570,9.492,-0.534,-3.988,13.832,0.000,2.652,9.542,-0.809,0.000,0.000,0.000,0.000,0,-0.001,0.009,781,1050,1260,946,2.564,9.430
310,0.000,-7.482,16.710,-0.005,2.613,9.525,-0.656,-3.988,13.832,0.005,2.652,9.564,-0.717,0.000,0.000,0.000,0.000,0,-0.001,0.009,783,1050,1262,946,2.564,9.430
311,0.000,-7.482,16.710,0.000,2.549,9.509,-0.595,-3.988,13.832,0.000,2.664,9.588,-0.565,0.000,0.000,0.000,0.000,0,-0.001,0.010,784,1050,1262,946,2.472,9.430
312,0.000,-7.504,16.710,0.016,2.565,9.504,-0.473,-3.966,13.832,0.005,2.668,9.552,-0.504,0.000,0.000,0.000,0.000,0,-0.001,0.009,784,1050,1260,946,2.564,9.430
313,0.000,-7.504,16.710,0.005,2.582,9.514,-0.534,-3.966,13.832,0.005,2.666,9.554,-0.473,0.000,0.000,0.000,0.000,0,-0.001,0.009,783,1050,1262,946,2.564,9.522
314,0.000,-7.504,16.710,0.000,2.549,9.502,-0.565,-3.966,13.832,-0.005,2.620,9.604,-0.504,0.000,0.000,0.000,0.000,0,-0.001,0.009,787,1050,1262,946,2.472,9.430
315,0.000,-7.504,16.710,0.000,2.582,9.509,-0.504,-3.966,13.832,-0.005,2.680,9.600,-0.717,0.000,0.000,0.000,0.000,0,-0.001,0.009,784,1051,1259,946,2.564,9.430
316,0.000,-7.504,16.710,-0.005,2.635,9.533,-0.504,-3.966,13.832,0.000,2.666,9.607,-0.870,0.000,0.000,0.000,0.000,0,-0.001,0.010,784,1050,1260,948,2.564,9.430
317,0.000,-7.504,16.710,0.005,2.613,9.509,-0.595,-3.966,13.832,0.000,2.635,9.595,-0.809,0.000,0.000,0.000,0.000,0,-0.001,0.010,784,1050,1265,946,2.472,9.430
318,0.000,-7.504,16.710,-0.005,2.587,9.494,-0.626,-3.944,13.832,0.027,2.673,9.583,-0.748,0.000,0.000,0.000,0.000,0,-0.001,0.009,784,1050,1264,944,2.564,9.430
319,0.000,-7.504,16.710,0.005,2.606,9.514,-0.565,-3.944,13.832,-0.005,2.714,9.578,-0.565,0.000,0.000,0.000,0.000,0,-0.001,0.010,784,1051,1257,947,2.564,9.522
320,0.000,-7.504,16.710,0.000,2.577,9.523,-0.381,-3.944,13.832,0.000,2.719,9.571,-0.534,0.000,0.000,0.000,0.000,0,-0.001,0.009,784,1050,1256,948,2.564,9.430
321,0.000,-7.504,16.710,-0.005,2.510,9.485,-0.443,-3.922,13.832,-0.005,2.673,9.588,-0.534,0.000,0.000,0.000,0.000,0,-0.001,0.010,783,1051,1263,946,2.564,9.430
322,0.000,-7.504,16.710,-0.005,2.510,9.466,-0.717,-3.922,13.832,-0.005,2.723,9.576,-0.656,0.000,0.000,0.000,0.000,0,-0.001,0.009,784,1049,1265,945,2.564,9.430
323,0.000,-7.504,16.710,0.000,2.570,9.506,-0.839,-3.922,13.832,-0.005,2.750,9.576,-0.687,0.000,0.000,0.000,0.000,0,-0.001,0.010,784,1051,1262,946,2.564,9.522
324,0.000,-7.526,16.710,0.000,2.541,9.478,-0.809,-3.900,13.832,0.005,2.680,9.648,-0.595,0.000,0.000,0.000,0.000,0,-0.001,0.009,784,1051,1260,946,2.472,9.430
325,0.000,-7.526,16.710,-0.016,2.482,9.444,-0.656,-3.900,13.832,0.000,2.668,9.667,-0.595,0.000,0.000,0.000,0.000,0,-0.001,0.009,784,1050,1262,944,2.472,9.430
326,0.000,-7.526,16.710,-0.005,2.565,9.494,-0.778,-3.900,13.832,0.016,2.668,9.609,-0.656,0.000,0.000,0.000,0.000,0,-0.001,0.009,785,1050,1262,944,2.564,9.430
327,0.000,-7.526,16.710,0.000,2.647,9.497,-0.717,-3.900,13.832,0.000,2.649,9.628,-0.565,0.000,0.000,0.000,0.000,0,-0.001,0.010,784,1051,1262,950,2.472,9.430
328,0.000,-7.526,16.710,0.000,2.561,9.456,-0.534,-3.900,13.832,0.005,2.688,9.626,-0.534,0.000,0.000,0.000,0.000,0,-0.002,0.009,784,1050,1261,947,2.472,9.430
329,0.000,-7.526,16.710,0.000,2.518,9.470,-0.412,-3.900,13.832,0.016,2.707,9.604,-0.504,0.000,0.000,0.000,0.000,0,-0.001,0.010,784,1050,1261,942,2.564,9.430
330,0.000,-7.526,16.710,0.000,2.541,9.475,-0.504,-3.878,13.832,0.005,2.731,9.612,-0.595,0.000,0.000,0.000,0.000,0,-0.001,0.009,784,1051,1262,944,2.564,9.430
331,0.000,-7.526,16.710,0.000,2.532,9.454,-0.656,-3.878,13.832,0.000,2.719,9.604,-0.565,0.000,0.000,0.000,0.000,0,-0.001,0.010,786,1051,1262,949,2.472,9.430
332,0.000,-7.548,16.710,0.000,2.575,9.461,-0.565,-3.878,13.832,0.000,2.702,9.636,-0.565,0.000,0.000,0.000,0.000,0,-0.002,0.009,784,1046,1262,949,2.472,9.430
333,0.000,-7.548,16.710,-0.016,2.594,9.487,-0.595,-3.856,13.832,0.000,2.678,9.643,-0.717,0.000,0.000,0.000,0.000,0,-0.002,0.010,784,1050,1262,946,2.472,9.430
334,0.000,-7.526,16.710,-0.005,2.582,9.518,-0.778,-3.856,13.832,0.000,2.664,9.643,-0.687,0.000,0.000,0.000,0.000,0,-0.001,0.010,784,1051,1261,945,2.472,9.430
335,0.000,-7.526,16.710,-0.005,2.582,9.473,-0.839,-3.856,13.832,0.000,2.680,9.655,-0.595,0.000,0.000,0.000,0.000,0,-0.003,0.010,783,1051,1262,948,2.564,9.430
336,0.000,-7.526,16.710,0.000,2.585,9.444,-0.778,-3.856,13.832,-0.005,2.745,9.657,-0.687,0.000,0.000,0.000,0.000,0,-0.003,0.010,785,1051,1262,947,2.564,9.430
337,0.000,-7.526,16.710,0.016,2.589,9.454,-0.656,-3.856,13.832,0.005,2.757,9.655,-0.565,0.000,0.000,0.000,0.000,0,-0.000,0.010,784,1050,1261,947,2.564,9.430
338,0.000,-7.526,16.710,0.005,2.628,9.504,-0.626,-3.834,13.832,0.005,2.735,9.645,-0.381,0.000,0.000,0.000,0.000,0,-0.001,0.010,784,1050,1261,947,2.564,9.430
339,0.000,-7.526,16.710,0.000,2.597,9.497,-0.809,-3.834,13.832,0.016,2.716,9.619,-0.351,0.000,0.000,0.000,0.000,0,-0.004,0.010,784,1051,1262,947,2.564,9.430
340,0.000,-7.526,16.710,0.000,2.522,9.444,-0.748,-3.834,13.832,0.000,2.711,9.638,-0.351,0.000,0.000,0.000,0.000,0,-0.001,0.010,784,1050,1262,947,2.564,9.430
341,0.000,-7.526,16.710,-0.005,2.570,9.487,-0.656,-3.834,13.832,0.000,2.656,9.683,-0.534,0.000,0.000,0.000,0.000,0,-0.001,0.010,784,1051,1262,947,2.564,9.430
342,0.000,-7.526,16.710,0.000,2.659,9.511,-0.595,-3.834,13.832,0.000,2.656,9.683,-0.473,0.000,0.000,0.000,0.000,0,-0.001,0.010,784,1050,1261,947,2.564,9.430
343,0.000,-7.526,16.710,0.000,2.628,9.482,-0.626,-3.834,13.832,0.005,2.711,9.650,-0.412,0.000,0.000,0.000,0.000,0,-0.002,0.010,786,1050,1262,948,2.472,9.430
344,0.000,-7.526,16.710,0.000,2.601,9.487,-0.809,-3.834,13.832,-0.005,2.688,9.609,-0.473,0.000,0.000,0.000,0.000,0,-0.002,0.010,784,1049,1261,947,2.564,9.430
345,0.000,-7.504,16.710,-0.016,2.668,9.499,-0.687,-3.812,13.832,-0.005,2.688,9.643,-0.534,0.000,0.000,0.000,0.000,0,-0.002,0.009,784,1050,1263,948,2.655,9.430
346,0.000,-7.504,16.710,0.005,2.666,9.470,-0.595,-3.812,13.832,0.000,2.726,9.648,-0.595,0.000,0.000,0.000,0.000,0,-0.002,0.010,784,1050,1262,947,2.564,9.430
347,0.000,-7.504,16.710,0.000,2.582,9.463,-0.748,-3.812,13.832,0.016,2.721,9.645,-0.626,0.000,0.000,0.000,0.000,0,-0.002,0.010,784,1050,1261,947,2.564,9.430
348,0.000,-7.504,16.710,0.000,2.568,9.454,-0.870,-3.812,13.832,0.000,2.704,9.676,-0.443,0.000,0.000,0.000,0.000,0,-0.002,0.010,784,1050,1261,947,2.655,9.430
349,0.000,-7.504,16.710,0.016,2.637,9.446,-0.748,-3.812,13.832,0.000,2.709,9.686,-0.565,0.000,0.000,0.000,0.000,0,-0.001,0.010,784,1051,1263,947,2.655,9.430
350,0.000,-7.482,16.710,0.000,2.702,9.468,-0.565,-3.812,13.832,-0.005,2.695,9.688,-0.443,0.000,0.000,0.000,0.000,0,-0.001,0.011,783,1049,1263,948,2.564,9.430
351,0.000,-7.482,16.710,0.005,2.690,9.466,-0.626,-3.812,13.832,-0.005,2.695,9.698,-0.381,0.000,0.000,0.000,0.000,0,-0.001,0.010,784,1049,1261,947,2.564,9.430
352,0.000,-7.460,16.710,0.000,2.721,9.499,-0.504,-3.812,13.832,0.000,2.690,9.703,-0.534,0.000,0.000,0.000,0.000,0,-0.001,0.010,784,1048,1262,947,2.564,9.430
353,0.000,-7.460,16.710,0.000,2.714,9.497,-0.534,-3.790,13.832,-0.005,2.707,9.669,-0.656,0.000,0.000,0.000,0.000,0,-0.001,0.010,786,1048,1263,948,2.655,9.430
354,0.000,-7.438,16.710,0.016,2.611,9.451,-0.443,-3.790,13.832,-0.016,2.728,9.614,-0.626,0.000,0.000,0.000,0.000,0,-0.001,0.010,783,1051,1260,947,2.655,9.430
355,0.000,-7.438,16.710,0.000,2.635,9.487,-0.412,-3.790,13.832,0.000,2.733,9.643,-0.565,0.000,0.000,0.000,0.000,0,-0.001,0.009,784,1049,1261,949,2.655,9.430
356,0.000,-7.438,16.710,0.000,2.685,9.497,-0.534,-3.790,13.832,0.000,2.740,9.695,-0.320,0.000,0.000,0.000,0.000,0,-0.001,0.010,784,1049,1265,948,2.655,9.430
357,0.000,-7.416,16.710,0.000,2.685,9.468,-0.626,-3.768,13.832,-0.005,2.731,9.679,-0.351,0.000,0.000,0.000,0.000,0,-0.001,0.009,783,1049,1266,946,2.564,9.430
358,0.000,-7.416,16.710,0.005,2.700,9.470,-0.626,-3.768,13.832,0.005,2.654,9.676,-0.473,0.000,0.000,0.000,0.000,0,-0.001,0.009,783,1048,1257,948,2.564,9.430
359,0.000,-7.394,16.710,-0.005,2.697,9.466,-0.534,-3.790,13.832,-0.005,2.656,9.664,-0.473,0.000,0.000,0.000,0.000,0,-0.001,0.010,783,1049,1259,949,2.655,9.430
360,0.000,-7.394,16.710,0.000,2.680,9.494,-0.443,-3.790,13.832,-0.005,2.680,9.667,-0.412,0.000,0.000,0.000,0.000,0,-0.002,0.009,783,1049,1265,946,2.655,9.430
361,0.000,-7.394,16.710,-0.005,2.668,9.511,-0.565,-3.790,13.832,0.000,2.659,9.657,-0.351,0.000,0.000,0.000,0.000,0,-0.002,0.010,784,1048,1264,946,2.655,9.430
362,0.000,-7.372,16.710,0.000,2.676,9.480,-0.504,-3.790,13.832,-0.005,2.702,9.607,-0.381,0.000,0.000,0.000,0.000,0,-0.001,0.010,784,1049,1260,949,2.655,9.430
363,0.000,-7.372,16.710,-0.005,2.697,9.468,-0.473,-3.790,13.832,-0.005,2.671,9.655,-0.320,0.000,0.000,0.000,0.000,0,-0.001,0.010,783,1049,1260,949,2.655,9.430
364,0.000,-7.372,16.710,0.005,2.652,9.487,-0.534,-3.790,13.832,0.000,2.661,9.672,-0.381,0.000,0.000,0.000,0.000,0,-0.002,0.009,783,1048,1262,945,2.655,9.430
365,0.000,-7.350,16.710,0.000,2.656,9.478,-0.381,-3.790,13.832,0.005,2.666,9.643,-0.443,0.000,0.000,0.000,0.000,0,-0.001,0.009,786,1048,1262,947,2.655,9.430
366,0.000,-7.350,16.710,-0.016,2.685,9.470,-0.381,-3.790,13.832,0.016,2.695,9.650,-0.412,0.000,0.000,0.000,0.000,0,-0.001,0.009,783,1049,1262,951,2.655,9.430
367,0.000,-7.350,16.710,0.016,2.668,9.494,-0.381,-3.790,13.832,-0.005,2.671,9.638,-0.320,0.000,0.000,0.000,0.000,0,-0.002,0.008,784,1048,1262,949,2.564,9.430
368,0.000,-7.350,16.710,0.005,2.632,9.458,-0.351,-3.790,13.832,0.000,2.678,9.686,-0.229,0.000,0.000,0.000,0.000,0,-0.001,0.009,784,1048,1262,944,2.655,9.430
369,0.000,-7.328,16.710,-0.005,2.649,9.454,-0.351,-3.790,13.832,-0.005,2.678,9.700,-0.320,0.000,0.000,0.000,0.000,0,-0.001,0.009,784,1048,1262,948,2.655,9.430
370,0.000,-7.328,16.710,0.000,2.702,9.509,-0.412,-3.790,13.832,0.000,2.628,9.679,-0.351,0.000,0.000,0.000,0.000,0,-0.002,0.009,782,1049,1262,952,2.655,9.430
371,0.000,-7.328,16.710,0.000,2.661,9.504,-0.443,-3.790,13.832,0.000,2.685,9.679,-0.381,0.000,0.000,0.000,0.000,0,-0.001,0.009,784,1044,1262,949,2.564,9.430
372,0.000,-7.328,16.710,0.000,2.673,9.468,-0.259,-3.790,13.832,0.000,2.707,9.686,-0.290,0.000,0.000,0.000,0.000,0,-0.001,0.009,784,1049,1261,946,2.564,9.430
373,0.000,-7.306,16.710,0.000,2.728,9.473,-0.229,-3.790,13.832,-0.005,2.707,9.705,-0.229,0.000,0.000,0.000,0.000,0,-0.001,0.009,784,1048,1262,948,2.655,9.430
374,0.000,-7.306,16.710,0.000,2.764,9.511,-0.198,-3.790,13.832,0.000,2.726,9.693,-0.168,0.000,0.000,0.000,0.000,0,-0.003,0.009,783,1049,1262,949,2.655,9.430
375,0.000,-7.284,16.710,0.016,2.692,9.504,-0.259,-3.790,13.832,0.000,2.695,9.669,-0.198,0.000,0.000,0.000,0.000,0,-0.002,0.009,782,1049,1262,949,2.655,9.430
376,0.000,-7.284,16.710,-0.005,2.644,9.480,-0.412,-3.790,13.832,0.000,2.676,9.645,-0.320,0.000,0.000,0.000,0.000,0,-0.000,0.009,784,1049,1262,949,2.655,9.430
377,0.000,-7.284,16.710,0.000,2.707,9.466,-0.259,-3.790,13.832,0.000,2.656,9.710,-0.320,0.000,0.000,0.000,0.000,0,-0.002,0.009,785,1049,1262,949,2.747,9.430
378,0.000,-7.262,16.710,0.000,2.731,9.470,-0.290,-3.790,13.832,0.005,2.688,9.734,-0.168,0.000,0.000,0.000,0.000,0,-0.003,0.009,784,1050,1262,949,2.655,9.430
379,0.000,-7.262,16.710,-0.016,2.702,9.475,-0.320,-3.790,13.832,0.000,2.668,9.688,-0.229,0.000,0.000,0.000,0.000,0,-0.000,0.009,784,1049,1262,948,2.564,9.430
380,0.000,-7.240,16.710,0.016,2.779,9.463,-0.259,-3.790,13.832,0.000,2.625,9.679,-0.229,0.000,0.000,0.000,0.000,0,0.000,0.009,784,1049,1262,948,2.655,9.430
381,0.000,-7.240,16.710,0.000,2.771,9.456,-0.168,-3.790,13.832,-0.005,2.659,9.674,-0.229,0.000,0.000,0.000,0.000,0,-0.000,0.009,784,1049,1262,948,2.655,9.430
382,0.000,-7.218,16.710,0.005,2.731,9.499,-0.229,-3.790,13.832,-0.005,2.673,9.681,-0.198,0.000,0.000,0.000,0.000,0,-0.002,0.009,786,1049,1262,949,2.655,9.430
383,0.000,-7.218,16.710,0.005,2.721,9.518,-0.107,-3.812,13.832,0.000,2.671,9.707,-0.076,0.000,0.000,0.000,0.000,0,-0.001,0.009,784,1048,1262,949,2.747,9.430
384,0.000,-7.196,16.710,0.000,2.721,9.521,0.000,-3.812,13.832,0.000,2.704,9.705,0.046,0.000,0.000,0.000,0.000,0,-0.001,0.009,784,1049,1262,949,2.747,9.430
385,0.000,-7.196,16.710,0.000,2.707,9.506,-0.107,-3.812,13.832,0.000,2.707,9.688,0.000,0.000,0.000,0.000,0.000,0,-0.001,0.009,784,1049,1263,949,2.655,9.430
386,0.000,-7.196,16.710,0.000,2.728,9.511,-0.198,-3.790,13.832,0.016,2.719,9.676,0.000,0.000,0.000,0.000,0.000,0,-0.001,0.009,784,1049,1261,949,2.655,9.430
387,0.000,-7.174,16.710,-0.005,2.738,9.485,-0.229,-3.790,13.832,-0.005,2.685,9.695,-0.015,0.000,0.000,0.000,0.000,0,-0.001,0.009,786,1049,1262,949,2.655,9.522
388,0.000,-7.174,16.710,0.016,2.728,9.439,-0.107,-3.790,13.832,0.005,2.676,9.688,-0.015,0.000,0.000,0.000,0.000,0,-0.001,0.009,784,1051,1263,949,2.655,9.430
389,0.000,-7.152,16.710,0.000,2.800,9.461,-0.107,-3.790,13.832,-0.005,2.680,9.698,-0.076,0.000,0.000,0.000,0.000,0,-0.001,0.010,784,1049,1262,949,2.655,9.430
390,0.000,-7.152,16.710,0.000,2.805,9.480,-0.076,-3.790,13.832,0.016,2.678,9.717,0.000,0.000,0.000,0.000,0.000,0,-0.002,0.009,784,1049,1263,949,2.655,9.430
391,0.000,-7.130,16.710,0.000,2.786,9.502,-0.168,-3.812,13.832,0.005,2.664,9.688,0.000,0.000,0.000,0.000,0.000,0,-0.001,0.009,784,1049,1263,949,2.655,9.430
392,0.000,-7.108,16.710,0.000,2.822,9.511,-0.107,-3.812,13.832,0.000,2.623,9.662,0.046,0.000,0.000,0.000,0.000,0,-0.002,0.009,781,1049,1264,949,2.747,9.430
393,0.000,-7.108,16.710,0.000,2.762,9.478,0.000,-3.812,13.832,0.000,2.668,9.624,0.000,0.000,0.000,0.000,0.000,0,-0.001,0.009,783,1053,1260,949,2.747,9.430
394,0.000,-7.086,16.710,-0.005,2.764,9.468,0.015,-3.812,13.832,-0.016,2.683,9.648,-0.015,0.000,0.000,0.000,0.000,0,-0.001,0.008,784,1049,1263,950,2.747,9.430
395,0.000,-7.086,16.710,0.000,2.781,9.427,0.000,-3.812,13.832,0.016,2.690,9.705,-0.046,0.000,0.000,0.000,0.000,0,-0.001,0.009,784,1049,1263,949,2.747,9.430
396,0.000,-7.064,16.710,0.005,2.764,9.430,-0.046,-3.812,13.832,0.000,2.709,9.715,0.015,0.000,0.000,0.000,0.000,0,-0.001,0.008,784,1050,1262,948,2.747,9.430
397,0.000,-7.042,16.710,0.000,2.805,9.456,-0.015,-3.812,13.832,0.000,2.680,9.717,0.015,0.000,0.000,0.000,0.000,0,-0.001,0.009,783,1049,1258,950,2.747,9.430
398,0.000,-7.042,16.710,0.000,2.824,9.458,0.168,-3.812,13.832,0.000,2.664,9.722,0.000,0.000,0.000,0.000,0.000,0,-0.001,0.009,784,1049,1264,950,2.747,9.339
399,0.000,-7.020,16.710,0.000,2.817,9.451,0.229,-3.812,13.832,-0.005,2.700,9.739,0.137,0.000,0.000,0.000,0.000,0,-0.002,0.009,783,1050,1263,949,2.747,9.430
400,0.000,-6.998,16.710,0.000,2.764,9.468,0.198,-3.812,13.832,0.000,2.726,9.748,0.290,0.000,0.000,0.000,0.000,0,-0.002,0.009,784,1050,1264,948,2.747,9.430
401,0.000,-6.998,16.710,-0.016,2.740,9.478,0.168,-3.812,13.832,-0.005,2.714,9.731,0.290,0.000,0.000,0.000,0.000,0,-0.002,0.009,784,1050,1260,950,2.747,9.430
402,0.000,-6.998,16.710,-0.005,2.807,9.463,0.076,-3.812,13.832,0.016,2.723,9.727,0.137,0.000,0.000,0.000,0.000,0,-0.002,0.009,784,1049,1261,949,2.747,9.430
403,0.000,-6.976,16.710,-0.005,2.798,9.456,0.076,-3.812,13.832,0.000,2.714,9.736,0.107,0.000,0.000,0.000,0.000,0,-0.002,0.009,784,1050,1263,946,2.747,9.430
404,0.000,-6.976,16.710,-0.005,2.757,9.442,0.168,-3.812,13.832,0.000,2.676,9.724,0.107,0.000,0.000,0.000,0.000,0,-0.002,0.009,785,1050,1262,953,2.655,9.430
405,0.000,-6.954,16.710,-0.016,2.779,9.458,0.320,-3.812,13.832,-0.005,2.671,9.683,0.046,0.000,0.000,0.000,0.000,0,-0.002,0.009,784,1048,1262,949,2.747,9.430
406,0.000,-6.954,16.710,-0.005,2.824,9.502,0.320,-3.812,13.832,0.016,2.692,9.669,0.046,0.000,0.000,0.000,0.000,0,-0.003,0.008,784,1050,1262,947,2.747,9.430
407,0.000,-6.932,16.710,0.016,2.817,9.523,0.229,-3.812,13.832,0.000,2.716,9.698,0.198,0.000,0.000,0.000,0.000,0,-0.002,0.008,784,1050,1262,947,2.747,9.430
408,0.000,-6.932,16.710,0.000,2.807,9.509,0.259,-3.812,13.832,0.000,2.709,9.700,0.198,0.000,0.000,0.000,0.000,0,-0.002,0.009,784,1050,1262,952,2.747,9.430
409,0.000,-6.911,16.710,0.000,2.841,9.509,0.412,-3.812,13.832,0.000,2.661,9.683,0.107,0.000,0.000,0.000,0.000,0,-0.002,0.008,781,1050,1262,953,2.747,9.430
410,0.000,-6.889,16.710,-0.005,2.810,9.482,0.595,-3.812,13.832,0.000,2.613,9.727,0.198,0.000,0.000,0.000,0.000,0,-0.002,0.009,784,1046,1262,951,2.747,9.522
411,0.000,-6.889,16.710,0.000,2.788,9.468,0.473,-3.812,13.832,0.000,2.666,9.748,0.412,0.000,0.000,0.000,0.000,0,-0.001,0.008,784,1050,1262,948,2.747,9.430
412,0.000,-6.867,16.710,0.000,2.846,9.502,0.320,-3.812,13.832,0.000,2.771,9.691,0.381,0.000,0.000,0.000,0.000,0,-0.003,0.008,783,1050,1262,950,2.838,9.430
413,0.000,-6.867,16.710,0.000,2.865,9.499,0.443,-3.812,13.832,0.005,2.728,9.688,0.229,0.000,0.000,0.000,0.000,0,-0.004,0.009,783,1050,1262,949,2.747,9.430
414,0.000,-6.845,16.710,0.005,2.884,9.494,0.504,-3.812,13.832,0.000,2.656,9.739,0.137,0.000,0.000,0.000,0.000,0,-0.001,0.009,781,1050,1262,950,2.747,9.430
415,0.000,-6.823,16.710,0.000,2.805,9.454,0.473,-3.812,13.832,0.005,2.656,9.746,0.259,0.000,0.000,0.000,0.000,0,-0.001,0.008,784,1049,1262,950,2.838,9.430
416,0.000,-6.823,16.710,-0.016,2.853,9.449,0.504,-3.812,13.832,0.000,2.707,9.717,0.320,0.000,0.000,0.000,0.000,0,-0.002,0.009,785,1050,1262,950,2.838,9.430
417,0.000,-6.801,16.710,0.000,2.838,9.466,0.534,-3.834,13.832,0.000,2.599,9.765,0.381,0.000,0.000,0.000,0.000,0,-0.004,0.009,784,1051,1261,950,2.838,9.430
418,0.000,-6.801,16.710,0.000,2.807,9.499,0.534,-3.834,13.832,-0.005,2.642,9.743,0.381,0.000,0.000,0.000,0.000,0,-0.003,0.009,784,1050,1262,950,2.747,9.430
419,0.000,-6.779,16.710,0.000,2.795,9.492,0.595,-3.834,13.832,0.000,2.688,9.695,0.290,0.000,0.000,0.000,0.000,0,-0.001,0.009,784,1050,1262,950,2.838,9.430
420,0.000,-6.779,16.710,0.000,2.807,9.446,0.565,-3.834,13.832,-0.005,2.671,9.741,0.229,0.000,0.000,0.000,0.000,0,-0.000,0.009,784,1050,1262,950,2.838,9.430
421,0.000,-6.757,16.710,0.000,2.812,9.413,0.595,-3.834,13.832,0.000,2.704,9.758,0.443,0.000,0.000,0.000,0.000,0,-0.002,0.009,784,1050,1262,950,2.747,9.430
422,0.000,-6.757,16.710,0.005,2.788,9.430,0.656,-3.834,13.832,-0.005,2.697,9.727,0.656,0.000,0.000,0.000,0.000,0,-0.001,0.009,784,1049,1262,950,2.747,9.430
423,0.000,-6.757,16.710,-0.005,2.807,9.514,0.595,-3.834,13.832,-0.005,2.666,9.707,0.534,0.000,0.000,0.000,0.000,0,-0.001,0.009,784,1050,1263,950,2.747,9.430
424,0.000,-6.735,16.710,0.000,2.841,9.509,0.565,-3.856,13.832,0.016,2.613,9.715,0.473,0.000,0.000,0.000,0.000,0,-0.001,0.009,784,1050,1263,950,2.747,9.339
425,0.000,-6.735,16.710,0.000,2.869,9.482,0.717,-3.856,13.832,-0.005,2.582,9.731,0.443,0.000,0.000,0.000,0.000,0,-0.002,0.009,784,1050,1261,950,2.747,9.430
426,0.000,-6.713,16.710,0.005,2.886,9.490,0.870,-3.856,13.832,-0.005,2.616,9.712,0.443,0.000,0.000,0.000,0.000,0,-0.002,0.009,784,1049,1262,951,2.747,9.430
427,0.000,-6.691,16.710,0.005,2.867,9.485,0.809,-3.878,13.832,0.005,2.661,9.703,0.381,0.000,0.000,0.000,0.000,0,-0.002,0.009,783,1051,1263,951,2.838,9.430
428,0.000,-6.691,16.710,0.000,2.805,9.468,0.809,-3.878,13.832,-0.005,2.668,9.695,0.504,0.000,0.000,0.000,0.000,0,-0.002,0.010,784,1050,1261,950,2.838,9.430
429,0.000,-6.691,16.710,0.000,2.800,9.449,0.992,-3.878,13.832,0.000,2.659,9.676,0.656,0.000,0.000,0.000,0.000,0,-0.002,0.009,784,1050,1262,950,2.838,9.430
430,0.000,-6.669,16.710,0.016,2.786,9.413,0.931,-3.878,13.832,-0.005,2.642,9.667,0.626,0.000,0.000,0.000,0.000,0,-0.002,0.009,784,1050,1263,951,2.838,9.430
431,0.000,-6.669,16.710,0.005,2.783,9.394,0.839,-3.878,13.832,0.005,2.625,9.674,0.595,0.000,0.000,0.000,0.000,0,-0.001,0.009,782,1050,1264,951,2.747,9.430
432,0.000,-6.669,16.710,0.005,2.841,9.451,0.870,-3.878,13.832,-0.005,2.702,9.664,0.595,0.000,0.000,0.000,0.000,0,-0.002,0.009,784,1053,1259,950,2.747,9.430
433,0.000,-6.647,16.710,0.016,2.858,9.470,0.809,-3.878,13.832,0.005,2.668,9.669,0.626,0.000,0.000,0.000,0.000,0,-0.002,0.009,784,1050,1264,951,2.747,9.339
434,0.000,-6.647,16.710,-0.005,2.850,9.434,0.809,-3.878,13.832,0.000,2.580,9.724,0.565,0.000,0.000,0.000,0.000,0,-0.002,0.009,783,1050,1263,951,2.747,9.339
435,0.000,-6.625,16.710,0.005,2.855,9.439,0.931,-3.900,13.832,0.000,2.652,9.717,0.534,0.000,0.000,0.000,0.000,0,-0.002,0.009,783,1050,1266,949,2.838,9.430
436,0.000,-6.625,16.710,-0.005,2.831,9.497,0.900,-3.900,13.832,0.005,2.678,9.660,0.534,0.000,0.000,0.000,0.000,0,-0.002,0.009,783,1050,1258,951,2.838,9.430
437,0.000,-6.603,16.710,0.000,2.824,9.528,0.961,-3.900,13.832,0.000,2.673,9.626,0.778,0.000,0.000,0.000,0.000,0,-0.002,0.009,783,1050,1263,951,2.838,9.430
438,0.000,-6.603,16.710,-0.005,2.814,9.475,0.931,-3.900,13.832,0.005,2.709,9.664,0.809,0.000,0.000,0.000,0.000,0,-0.002,0.009,783,1050,1265,950,2.838,9.430
439,0.000,-6.603,16.710,-0.005,2.771,9.430,0.992,-3.878,13.832,-0.005,2.750,9.679,0.809,0.000,0.000,0.000,0.000,0,-0.002,0.009,784,1050,1265,949,2.747,9.430
440,0.000,-6.603,16.710,0.000,2.824,9.475,1.083,-3.878,13.832,-0.005,2.690,9.664,0.748,0.000,0.000,0.000,0.000,0,-0.002,0.009,783,1050,1260,951,2.747,9.522
441,0.000,-6.581,16.710,0.000,2.836,9.494,1.053,-3.878,13.832,0.000,2.690,9.695,0.900,0.000,0.000,0.000,0.000,0,-0.002,0.009,784,1050,1262,949,2.747,9.430
442,0.000,-6.581,16.710,0.005,2.826,9.425,1.144,-3.878,13.832,0.000,2.721,9.645,0.809,0.000,0.000,0.000,0.000,0,-0.002,0.009,784,1050,1263,948,2.747,9.430
443,0.000,-6.581,16.710,0.000,2.846,9.387,1.053,-3.878,13.832,0.000,2.666,9.604,0.717,0.000,0.000,0.000,0.000,0,-0.001,0.009,786,1051,1262,950,2.747,9.430
444,0.000,-6.559,16.710,-0.005,2.855,9.434,1.053,-3.878,13.832,0.005,2.635,9.636,0.748,0.000,0.000,0.000,0.000,0,-0.001,0.009,784,1051,1262,954,2.747,9.430
445,0.000,-6.559,16.710,-0.005,2.858,9.425,1.114,-3.878,13.832,0.005,2.640,9.655,0.748,0.000,0.000,0.000,0.000,0,-0.002,0.008,784,1050,1262,953,2.747,9.339
446,0.000,-6.537,16.710,-0.016,2.802,9.427,1.144,-3.878,13.832,-0.005,2.640,9.669,0.778,0.000,0.000,0.000,0.000,0,-0.001,0.010,784,1050,1262,948,2.838,9.339
447,0.000,-6.537,16.710,0.000,2.793,9.458,1.205,-3.878,13.832,-0.005,2.668,9.676,0.961,0.000,0.000,0.000,0.000,0,-0.001,0.009,784,1051,1262,954,2.838,9.430
448,0.000,-6.537,16.710,-0.005,2.834,9.437,1.266,-3.900,13.832,-0.005,2.652,9.674,0.992,0.000,0.000,0.000,0.000,0,-0.001,0.009,787,1051,1262,954,2.838,9.339
449,0.000,-6.537,16.710,-0.005,2.843,9.446,1.175,-3.900,13.832,0.000,2.630,9.624,0.870,0.000,0.000,0.000,0.000,0,-0.001,0.009,784,1046,1262,953,2.747,9.339
450,0.000,-6.515,16.710,0.000,2.831,9.458,1.144,-3.900,13.832,-0.005,2.647,9.619,0.961,0.000,0.000,0.000,0.000,0,-0.001,0.009,784,1050,1262,948,2.747,9.430
451,0.000,-6.515,16.710,-0.005,2.831,9.423,1.297,-3.900,13.832,0.000,2.613,9.614,0.961,0.000,0.000,0.000,0.000,0,-0.002,0.009,784,1051,1262,951,2.747,9.430
452,0.000,-6.515,16.710,0.000,2.793,9.420,1.114,-3.900,13.832,-0.005,2.597,9.585,1.114,0.000,0.000,0.000,0.000,0,-0.003,0.010,784,1050,1262,952,2.838,9.430
453,0.000,-6.515,16.710,-0.005,2.822,9.442,1.083,-3.900,13.832,0.000,2.616,9.614,0.992,0.000,0.000,0.000,0.000,0,-0.001,0.010,781,1050,1262,951,2.747,9.430
454,0.000,-6.493,16.710,0.005,2.879,9.432,1.083,-3.922,13.832,0.005,2.647,9.652,0.870,0.000,0.000,0.000,0.000,0,-0.001,0.010,784,1050,1262,951,2.747,9.339
455,0.000,-6.493,16.710,-0.005,2.867,9.434,1.236,-3.922,13.832,-0.005,2.661,9.631,0.961,0.000,0.000,0.000,0.000,0,-0.003,0.010,785,1050,1262,951,2.747,9.339
456,0.000,-6.471,16.710,0.016,2.817,9.449,1.205,-3.900,13.832,0.005,2.700,9.595,1.114,0.000,0.000,0.000,0.000,0,-0.004,0.010,783,1051,1262,951,2.747,9.430
457,0.000,-6.471,16.710,0.000,2.834,9.444,1.205,-3.900,13.832,0.000,2.688,9.652,1.114,0.000,0.000,0.000,0.000,0,-0.001,0.010,783,1050,1262,951,2.838,9.430
458,0.000,-6.471,16.710,-0.005,2.846,9.456,1.205,-3.900,13.832,0.005,2.597,9.597,1.022,0.000,0.000,0.000,0.000,0,-0.000,0.010,784,1049,1262,951,2.838,9.430
459,0.000,-6.449,16.710,-0.005,2.846,9.468,1.144,-3.922,13.832,0.000,2.623,9.597,1.114,0.000,0.000,0.000,0.000,0,-0.001,0.010,784,1049,1262,951,2.747,9.430
460,0.000,-6.449,16.710,0.000,2.869,9.456,1.144,-3.922,13.832,0.000,2.678,9.619,1.053,0.000,0.000,0.000,0.000,0,-0.002,0.010,785,1049,1262,951,2.747,9.430
461,0.000,-6.449,16.710,0.005,2.925,9.461,1.358,-3.922,13.832,0.000,2.611,9.612,0.992,0.000,0.000,0.000,0.000,0,-0.002,0.010,783,1048,1262,951,2.838,9.430
462,0.000,-6.427,16.710,-0.005,2.920,9.444,1.419,-3.922,13.832,0.005,2.616,9.566,0.961,0.000,0.000,0.000,0.000,0,-0.001,0.010,783,1049,1263,951,2.838,9.430
463,0.000,-6.405,16.710,-0.005,2.860,9.413,1.266,-3.922,13.832,0.005,2.635,9.554,1.083,0.000,0.000,0.000,0.000,0,-0.002,0.010,784,1049,1263,952,2.838,9.430
464,0.000,-6.405,16.710,0.000,2.848,9.423,1.297,-3.922,13.832,0.000,2.620,9.583,1.114,0.000,0.000,0.000,0.000,0,-0.001,0.010,784,1048,1261,951,2.838,9.430
465,0.000,-6.405,16.710,0.000,2.831,9.403,1.266,-3.922,13.832,0.005,2.644,9.636,1.175,0.000,0.000,0.000,0.000,0,-0.002,0.010,782,1048,1262,951,2.838,9.430
466,0.000,-6.405,16.710,0.000,2.819,9.363,1.144,-3.922,13.832,0.000,2.678,9.648,1.205,0.000,0.000,0.000,0.000,0,-0.002,0.010,784,1049,1263,951,2.838,9.339
467,0.000,-6.383,16.710,0.000,2.901,9.425,1.175,-3.922,13.832,0.000,2.690,9.624,1.053,0.000,0.000,0.000,0.000,0,-0.001,0.011,784,1048,1263,951,2.838,9.339
468,0.000,-6.383,16.710,-0.005,2.920,9.468,1.266,-3.922,13.832,0.000,2.649,9.585,1.205,0.000,0.000,0.000,0.000,0,-0.002,0.009,783,1048,1261,951,2.747,9.339
469,0.000,-6.361,16.710,0.000,2.910,9.456,1.358,-3.922,13.832,-0.005,2.637,9.547,1.266,0.000,0.000,0.000,0.000,0,-0.002,0.010,783,1048,1263,951,2.747,9.339
470,0.000,-6.339,16.710,0.005,2.937,9.466,1.358,-3.922,13.832,0.005,2.606,9.552,1.205,0.000,0.000,0.000,0.000,0,-0.002,0.009,787,1047,1262,951,2.838,9.339
471,0.000,-6.339,16.710,0.005,2.925,9.449,1.297,-3.922,13.832,0.000,2.606,9.595,1.266,0.000,0.000,0.000,0.000,0,-0.002,0.010,783,1050,1260,950,2.838,9.430
472,0.000,-6.317,16.710,0.016,2.829,9.408,1.175,-3.922,13.832,-0.005,2.637,9.636,1.205,0.000,0.000,0.000,0.000,0,-0.001,0.010,784,1047,1261,952,2.838,9.430
473,0.000,-6.317,16.710,-0.016,2.783,9.420,1.205,-3.944,13.832,0.000,2.606,9.636,1.297,0.000,0.000,0.000,0.000,0,-0.001,0.010,784,1047,1265,951,2.930,9.430
474,0.000,-6.317,16.710,0.005,2.872,9.451,1.236,-3.944,13.832,0.005,2.618,9.628,1.114,0.000,0.000,0.000,0.000,0,-0.001,0.009,784,1047,1263,949,2.838,9.430
475,0.000,-6.317,16.710,0.000,2.939,9.468,1.297,-3.944,13.832,0.000,2.644,9.593,1.205,0.000,0.000,0.000,0.000,0,-0.002,0.009,784,1047,1257,952,2.747,9.339
476,0.000,-6.295,16.710,0.016,2.946,9.468,1.328,-3.944,13.832,0.016,2.613,9.573,1.358,0.000,0.000,0.000,0.000,0,-0.002,0.009,784,1046,1266,951,2.747,9.339
477,0.000,-6.295,16.710,0.005,2.913,9.444,1.297,-3.944,13.832,-0.005,2.563,9.624,1.450,0.000,0.000,0.000,0.000,0,-0.002,0.009,782,1046,1265,951,2.838,9.430
478,0.000,-6.273,16.710,0.000,2.848,9.411,1.236,-3.966,13.832,0.000,2.575,9.607,1.358,0.000,0.000,0.000,0.000,0,-0.002,0.009,784,1046,1264,950,2.930,9.430
479,0.000,-6.273,16.710,0.000,2.834,9.423,1.114,-3.966,13.832,0.005,2.620,9.581,1.297,0.000,0.000,0.000,0.000,0,-0.002,0.010,784,1046,1260,952,2.930,9.430
480,0.000,-6.273,16.710,-0.016,2.884,9.492,1.205,-3.966,13.832,0.000,2.661,9.597,1.205,0.000,0.000,0.000,0.000,0,-0.002,0.010,784,1046,1262,949,2.838,9.430
481,0.000,-6.273,16.710,0.000,2.889,9.485,1.266,-3.966,13.832,0.000,2.659,9.621,1.266,0.000,0.000,0.000,0.000,0,-0.002,0.009,784,1046,1263,949,2.838,9.339
482,0.000,-6.251,16.710,0.000,2.901,9.420,1.358,-3.966,13.832,-0.005,2.640,9.614,1.328,0.000,0.000,0.000,0.000,0,-0.001,0.009,786,1046,1263,949,2.747,9.339
483,0.000,-6.251,16.710,-0.005,2.925,9.403,1.266,-3.966,13.832,0.000,2.604,9.597,1.358,0.000,0.000,0.000,0.000,0,-0.002,0.010,784,1045,1262,953,2.838,9.430
484,0.000,-6.229,16.710,0.005,2.927,9.456,1.053,-3.966,13.832,0.000,2.589,9.633,1.297,0.000,0.000,0.000,0.000,0,-0.003,0.008,784,1046,1261,953,2.838,9.430
485,0.000,-6.229,16.710,0.000,2.946,9.478,1.266,-3.988,13.832,0.000,2.570,9.648,1.297,0.000,0.000,0.000,0.000,0,-0.002,0.009,784,1047,1262,947,2.838,9.339
486,0.000,-6.207,16.710,0.000,2.898,9.432,1.511,-3.988,13.832,0.000,2.577,9.612,1.450,0.000,0.000,0.000,0.000,0,-0.002,0.009,783,1046,1262,950,2.838,9.339
487,0.000,-6.207,16.710,0.005,2.917,9.442,1.389,-3.988,13.832,0.005,2.625,9.604,1.511,0.000,0.000,0.000,0.000,0,-0.003,0.009,781,1047,1262,955,2.838,9.430
488,0.000,-6.185,16.710,0.000,2.893,9.420,1.266,-3.988,13.832,-0.005,2.649,9.638,1.328,0.000,0.000,0.000,0.000,0,-0.003,0.010,784,1042,1262,953,2.930,9.430
489,0.000,-6.185,16.710,0.016,2.877,9.353,1.175,-3.988,13.832,0.000,2.637,9.655,1.297,0.000,0.000,0.000,0.000,0,-0.002,0.008,784,1047,1262,950,2.838,9.430
490,0.000,-6.185,16.710,0.005,2.901,9.355,1.328,-4.010,13.832,0.005,2.620,9.655,1.419,0.000,0.000,0.000,0.000,0,-0.002,0.009,784,1047,1262,952,2.838,9.430
491,0.000,-6.163,16.710,-0.005,2.898,9.389,1.541,-4.010,13.832,0.000,2.652,9.638,1.511,0.000,0.000,0.000,0.000,0,-0.000,0.009,784,1047,1262,951,2.838,9.339
492,0.000,-6.163,16.710,0.005,2.867,9.379,1.511,-4.010,13.832,-0.005,2.565,9.676,1.419,0.000,0.000,0.000,0.000,0,-0.001,0.009,781,1046,1262,952,2.838,9.339
493,0.000,-6.163,16.710,0.000,2.898,9.413,1.389,-4.010,13.832,-0.005,2.597,9.693,1.297,0.000,0.000,0.000,0.000,0,-0.000,0.009,784,1046,1262,952,2.838,9.339
494,0.000,-6.141,16.710,0.016,2.937,9.444,1.328,-4.010,13.832,0.000,2.647,9.636,1.511,0.000,0.000,0.000,0.000,0,-0.004,0.010,785,1046,1262,952,2.838,9.339
495,0.000,-6.141,16.710,0.000,2.910,9.408,1.358,-4.032,13.832,0.000,2.575,9.638,1.663,0.000,0.000,0.000,0.000,0,-0.003,0.009,783,1047,1262,952,2.838,9.339
496,0.000,-6.119,16.710,0.000,2.893,9.399,1.328,-4.032,13.832,0.005,2.620,9.679,1.572,0.000,0.000,0.000,0.000,0,-0.002,0.009,784,1046,1262,952,2.838,9.339
497,0.000,-6.119,16.710,0.005,2.913,9.389,1.236,-4.032,13.832,0.005,2.623,9.650,1.511,0.000,0.000,0.000,0.000,0,-0.000,0.009,784,1046,1262,952,2.930,9.430
498,0.000,-6.119,16.710,0.000,2.917,9.387,1.297,-4.032,13.832,0.005,2.549,9.631,1.511,0.000,0.000,0.000,0.000,0,-0.001,0.009,784,1046,1262,952,2.838,9.339
499,0.000,-6.098,16.710,0.005,2.879,9.399,1.358,-4.054,13.832,-0.005,2.544,9.683,1.358,0.000,0.000,0.000,0.000,0,-0.002,0.010,786,1046,1262,952,2.838,9.339
500,0.000,-6.098,16.732,0.005,2.881,9.379,1.602,-4.054,13.832,0.000,2.541,9.648,1.419,0.000,0.000,0.000,0.000,0,-0.001,0.010,783,1045,1262,952,2.838,9.339
501,0.000,-6.098,16.732,-0.005,2.884,9.389,1.541,-4.076,13.832,0.000,2.604,9.652,1.389,0.000,0.000,0.000,0.000,0,-0.001,0.010,784,1046,1263,952,2.838,9.339
502,0.000,-6.076,16.732,0.000,2.886,9.379,1.480,-4.076,13.832,0.000,2.601,9.667,1.389,0.000,0.000,0.000,0.000,0,-0.002,0.009,783,1045,1263,952,2.838,9.339
503,0.000,-6.076,16.732,0.000,2.838,9.372,1.419,-4.076,13.832,-0.005,2.575,9.633,1.419,0.000,0.000,0.000,0.000,0,-0.002,0.010,784,1045,1261,952,2.838,9.339
504,0.000,-6.076,16.732,0.000,2.802,9.394,1.358,-4.076,13.832,0.000,2.582,9.652,1.450,0.000,0.000,0.000,0.000,0,-0.002,0.009,786,1045,1263,952,2.838,9.339
505,0.000,-6.076,16.732,0.005,2.879,9.413,1.297,-4.098,13.832,0.005,2.594,9.679,1.633,0.000,0.000,0.000,0.000,0,-0.002,0.009,784,1047,1263,952,2.838,9.339
506,0.000,-6.076,16.732,0.000,2.898,9.420,1.236,-4.098,13.832,0.016,2.532,9.693,1.511,0.000,0.000,0.000,0.000,0,-0.002,0.011,784,1045,1263,952,2.838,9.339
507,0.000,-6.076,16.732,0.005,2.891,9.394,1.236,-4.120,13.832,0.005,2.522,9.703,1.389,0.000,0.000,0.000,0.000,0,-0.001,0.009,784,1045,1261,952,2.747,9.339
508,0.000,-6.054,16.732,0.005,2.905,9.382,1.328,-4.120,13.832,0.005,2.580,9.681,1.419,0.000,0.000,0.000,0.000,0,-0.001,0.009,784,1045,1263,952,2.838,9.339
509,0.000,-6.054,16.732,-0.005,2.913,9.406,1.511,-4.120,13.832,-0.005,2.573,9.710,1.511,0.000,0.000,0.000,0.000,0,-0.002,0.009,787,1046,1263,952,2.838,9.339
510,0.000,-6.054,16.732,0.000,2.853,9.391,1.511,-4.142,13.832,-0.016,2.565,9.698,1.389,0.000,0.000,0.000,0.000,0,-0.002,0.009,783,1049,1260,952,2.838,9.339
511,0.000,-6.054,16.732,-0.016,2.881,9.423,1.480,-4.142,13.832,-0.005,2.568,9.650,1.328,0.000,0.000,0.000,0.000,0,-0.002,0.010,784,1046,1260,953,2.838,9.339
512,0.000,-6.032,16.732,0.000,2.889,9.449,1.450,-4.142,13.832,-0.005,2.599,9.667,1.389,0.000,0.000,0.000,0.000,0,-0.002,0.010,784,1045,1263,951,2.838,9.339
513,0.000,-6.032,16.732,-0.005,2.843,9.401,1.328,-4.142,13.832,0.005,2.659,9.660,1.297,0.000,0.000,0.000,0.000,0,-0.002,0.009,784,1045,1263,951,2.838,9.339
514,0.000,-6.032,16.732,0.005,2.834,9.403,1.511,-4.142,13.832,0.000,2.630,9.652,1.297,0.000,0.000,0.000,0.000,0,-0.002,0.010,783,1045,1258,953,2.838,9.339
515,0.000,-6.032,16.732,0.000,2.836,9.382,1.572,-4.142,13.832,-0.016,2.589,9.660,1.511,0.000,0.000,0.000,0.000,0,-0.002,0.010,784,1045,1264,953,2.838,9.430
516,0.000,-6.032,16.732,-0.005,2.908,9.348,1.480,-4.164,13.832,0.005,2.553,9.674,1.633,0.000,0.000,0.000,0.000,0,-0.002,0.010,782,1045,1265,951,2.838,9.339
517,0.000,-6.032,16.732,-0.005,2.908,9.365,1.450,-4.164,13.832,0.000,2.549,9.676,1.633,0.000,0.000,0.000,0.000,0,-0.002,0.010,784,1045,1262,951,2.747,9.339
518,0.000,-6.032,16.732,-0.005,2.867,9.351,1.602,-4.164,13.832,-0.005,2.580,9.631,1.572,0.000,0.000,0.000,0.000,0,-0.002,0.010,783,1045,1263,953,2.747,9.339
519,0.000,-6.010,16.732,0.000,2.869,9.389,1.511,-4.164,13.832,0.000,2.597,9.667,1.541,0.000,0.000,0.000,0.000,0,-0.002,0.010,783,1044,1261,950,2.838,9.339
520,0.000,-6.010,16.732,-0.016,2.913,9.427,1.480,-4.186,13.832,-0.005,2.568,9.688,1.602,0.000,0.000,0.000,0.000,0,-0.002,0.010,783,1044,1263,950,2.838,9.339
521,0.000,-6.010,16.732,0.000,2.879,9.336,1.480,-4.186,13.832,0.000,2.553,9.652,1.541,0.000,0.000,0.000,0.000,0,-0.002,0.010,786,1044,1262,954,2.838,9.339
522,0.000,-6.010,16.732,0.000,2.915,9.394,1.297,-4.186,13.832,0.005,2.585,9.662,1.511,0.000,0.000,0.000,0.000,0,-0.002,0.011,784,1042,1262,953,2.838,9.339
523,0.000,-5.988,16.732,0.005,2.913,9.348,1.389,-4.208,13.832,0.000,2.544,9.691,1.358,0.000,0.000,0.000,0.000,0,-0.002,0.009,784,1044,1261,948,2.838,9.339
524,0.000,-5.988,16.732,0.000,2.886,9.355,1.358,-4.208,13.832,0.000,2.537,9.707,1.389,0.000,0.000,0.000,0.000,0,-0.002,0.010,784,1044,1262,948,2.838,9.247
525,0.000,-5.988,16.732,0.000,2.879,9.344,1.389,-4.208,13.832,0.000,2.563,9.695,1.389,0.000,0.000,0.000,0.000,0,-0.001,0.010,784,1043,1262,951,2.838,9.339
526,0.000,-5.988,16.732,0.000,2.877,9.341,1.419,-4.230,13.832,0.000,2.592,9.691,1.389,0.000,0.000,0.000,0.000,0,-0.002,0.010,781,1043,1262,955,2.838,9.339
527,0.000,-5.966,16.732,0.000,2.881,9.336,1.480,-4.230,13.832,0.016,2.537,9.681,1.419,0.000,0.000,0.000,0.000,0,-0.002,0.010,784,1040,1262,951,2.838,9.339
528,0.000,-5.966,16.732,0.005,2.867,9.332,1.419,-4.230,13.832,-0.005,2.515,9.705,1.328,0.000,0.000,0.000,0.000,0,-0.001,0.009,784,1043,1262,950,2.838,9.339
529,0.000,-5.966,16.732,-0.016,2.853,9.341,1.450,-4.252,13.832,0.000,2.606,9.705,1.297,0.000,0.000,0.000,0.000,0,-0.003,0.010,784,1043,1262,953,2.838,9.339
530,0.000,-5.966,16.732,-0.005,2.881,9.377,1.572,-4.252,13.832,0.000,2.611,9.669,1.236,0.000,0.000,0.000,0.000,0,-0.001,0.010,784,1043,1262,952,2.838,9.247
531,0.000,-5.966,16.732,0.005,2.850,9.360,1.419,-4.252,13.832,0.000,2.558,9.676,1.175,0.000,0.000,0.000,0.000,0,-0.001,0.010,782,1043,1262,952,2.838,9.247
532,0.000,-5.966,16.732,0.000,2.836,9.339,1.358,-4.252,13.832,-0.016,2.522,9.674,1.205,0.000,0.000,0.000,0.000,0,-0.000,0.010,784,1042,1262,952,2.838,9.339
533,0.000,-5.966,16.732,0.005,2.874,9.379,1.358,-4.274,13.832,0.005,2.541,9.705,1.358,0.000,0.000,0.000,0.000,0,-0.002,0.010,785,1042,1262,952,2.838,9.339
534,0.000,-5.966,16.732,0.005,2.869,9.355,1.450,-4.274,13.832,0.000,2.599,9.734,1.328,0.000,0.000,0.000,0.000,0,-0.002,0.010,783,1042,1262,952,2.838,9.339
535,0.000,-5.944,16.732,-0.005,2.891,9.339,1.450,-4.274,13.832,-0.016,2.604,9.703,1.266,0.000,0.000,0.000,0.000,0,-0.002,0.010,783,1042,1262,952,2.747,9.339
536,0.000,-5.944,16.732,0.000,2.896,9.367,1.419,-4.274,13.832,0.000,2.580,9.662,1.266,0.000,0.000,0.000,0.000,0,-0.001,0.010,784,1042,1262,953,2.838,9.339
537,0.000,-5.944,16.732,0.005,2.889,9.379,1.480,-4.274,13.832,-0.005,2.594,9.633,1.358,0.000,0.000,0.000,0.000,0,-0.002,0.010,783,1042,1263,953,2.838,9.339
538,0.000,-5.944,16.732,-0.016,2.831,9.322,1.480,-4.274,13.832,0.000,2.573,9.621,1.266,0.000,0.000,0.000,0.000,0,-0.002,0.010,784,1042,1262,952,2.838,9.339
539,0.000,-5.944,16.732,0.000,2.810,9.286,1.480,-4.274,13.832,0.000,2.510,9.616,1.205,0.000,0.000,0.000,0.000,0,-0.002,0.010,783,1040,1262,952,2.838,9.339
540,0.000,-5.944,16.732,0.000,2.819,9.329,1.480,-4.296,13.832,0.000,2.506,9.645,1.114,0.000,0.000,0.000,0.000,0,-0.001,0.010,784,1041,1263,952,2.838,9.339
541,0.000,-5.944,16.732,0.000,2.862,9.370,1.419,-4.296,13.832,0.005,2.563,9.650,0.992,0.000,0.000,0.000,0.000,0,-0.001,0.010,784,1041,1262,953,2.747,9.247
542,0.000,-5.944,16.732,0.000,2.872,9.346,1.480,-4.296,13.832,0.005,2.582,9.636,1.175,0.000,0.000,0.000,0.000,0,-0.001,0.010,784,1041,1261,953,2.747,9.247
543,0.000,-5.944,16.732,0.005,2.843,9.324,1.572,-4.296,13.832,0.000,2.551,9.597,1.144,0.000,0.000,0.000,0.000,0,-0.002,0.010,781,1041,1262,953,2.747,9.247
544,0.000,-5.944,16.732,-0.005,2.867,9.358,1.694,-4.318,13.832,0.000,2.575,9.609,1.022,0.000,0.000,0.000,0.000,0,-0.002,0.009,784,1042,1263,953,2.838,9.339
545,0.000,-5.944,16.732,0.000,2.812,9.351,1.633,-4.318,13.832,0.000,2.551,9.645,0.992,0.000,0.000,0.000,0.000,0,-0.001,0.010,784,1041,1262,953,2.838,9.339
546,0.000,-5.944,16.732,0.016,2.795,9.336,1.358,-4.318,13.832,0.000,2.553,9.650,1.083,0.000,0.000,0.000,0.000,0,-0.002,0.010,784,1041,1261,953,2.838,9.247
547,0.000,-5.944,16.732,0.000,2.807,9.346,1.389,-4.318,13.832,0.005,2.580,9.621,1.114,0.000,0.000,0.000,0.000,0,-0.002,0.010,784,1041,1263,953,2.838,9.339
548,0.000,-5.944,16.732,-0.005,2.831,9.382,1.266,-4.318,13.832,0.000,2.549,9.607,1.114,0.000,0.000,0.000,0.000,0,-0.002,0.010,787,1041,1259,953,2.747,9.339
549,0.000,-5.944,16.732,-0.005,2.889,9.394,1.236,-4.318,13.832,-0.005,2.553,9.628,1.053,0.000,0.000,0.000,0.000,0,-0.002,0.009,783,1043,1260,952,2.747,9.247
550,0.000,-5.944,16.732,-0.005,2.884,9.375,1.266,-4.318,13.832,-0.016,2.580,9.628,1.053,0.000,0.000,0.000,0.000,0,-0.002,0.010,784,1042,1263,954,2.747,9.339
551,0.000,-5.944,16.732,0.000,2.886,9.358,1.297,-4.318,13.832,-0.005,2.568,9.607,1.114,0.000,0.000,0.000,0.000,0,-0.002,0.010,784,1042,1264,952,2.747,9.339
552,0.000,-5.944,16.732,0.000,2.858,9.334,1.266,-4.318,13.832,0.000,2.553,9.597,1.205,0.000,0.000,0.000,0.000,0,-0.002,0.010,784,1041,1258,953,2.838,9.339
553,0.000,-5.944,16.732,0.000,2.798,9.355,1.297,-4.340,13.832,0.000,2.546,9.595,1.114,0.000,0.000,0.000,0.000,0,-0.003,0.009,784,1042,1257,953,2.838,9.339
554,0.000,-5.944,16.732,0.000,2.781,9.382,1.297,-4.340,13.832,-0.005,2.575,9.597,1.144,0.000,0.000,0.000,0.000,0,-0.003,0.010,783,1042,1260,955,2.838,9.339
555,0.000,-5.944,16.732,0.000,2.814,9.348,1.114,-4.340,13.832,-0.005,2.582,9.588,1.175,0.000,0.000,0.000,0.000,0,-0.003,0.009,784,1042,1264,952,2.838,9.247
556,0.000,-5.944,16.732,0.005,2.841,9.312,1.144,-4.340,13.832,0.005,2.532,9.602,1.114,0.000,0.000,0.000,0.000,0,-0.003,0.010,783,1043,1263,952,2.747,9.339
557,0.000,-5.944,16.732,0.000,2.802,9.377,1.297,-4.340,13.832,-0.005,2.570,9.619,1.022,0.000,0.000,0.000,0.000,0,-0.002,0.009,784,1042,1260,953,2.747,9.339
558,0.000,-5.966,16.732,0.005,2.788,9.339,1.266,-4.340,13.832,0.005,2.585,9.626,1.022,0.000,0.000,0.000,0.000,0,-0.002,0.009,784,1042,1262,951,2.747,9.339
559,0.000,-5.966,16.732,0.000,2.836,9.346,1.114,-4.340,13.832,0.000,2.558,9.624,0.992,0.000,0.000,0.000,0.000,0,-0.002,0.009,784,1042,1262,953,2.838,9.247
560,0.000,-5.966,16.732,0.000,2.831,9.365,1.053,-4.340,13.832,0.000,2.601,9.602,0.931,0.000,0.000,0.000,0.000,0,-0.001,0.009,785,1042,1262,954,2.747,9.339
561,0.000,-5.966,16.732,-0.005,2.798,9.372,1.083,-4.340,13.832,0.005,2.594,9.593,0.931,0.000,0.000,0.000,0.000,0,-0.002,0.009,784,1041,1262,955,2.747,9.339
562,0.000,-5.966,16.732,0.005,2.793,9.365,1.114,-4.340,13.832,0.000,2.553,9.604,0.931,0.000,0.000,0.000,0.000,0,-0.002,0.010,784,1042,1261,948,2.747,9.339
563,0.000,-5.966,16.732,0.000,2.814,9.360,1.144,-4.340,13.832,0.000,2.601,9.573,0.931,0.000,0.000,0.000,0.000,0,-0.002,0.010,784,1042,1262,953,2.747,9.339
564,0.000,-5.966,16.732,-0.005,2.824,9.389,1.175,-4.340,13.832,0.005,2.613,9.571,0.778,0.000,0.000,0.000,0.000,0,-0.001,0.009,784,1042,1262,952,2.747,9.339
565,0.000,-5.988,16.732,0.005,2.814,9.387,1.175,-4.340,13.832,-0.005,2.556,9.619,0.961,0.000,0.000,0.000,0.000,0,-0.001,0.010,782,1042,1262,951,2.747,9.339
566,0.000,-5.988,16.732,0.005,2.838,9.396,1.022,-4.340,13.832,0.005,2.573,9.616,1.022,0.000,0.000,0.000,0.000,0,-0.002,0.010,784,1038,1261,952,2.747,9.339
567,0.000,-5.988,16.732,0.000,2.834,9.406,0.931,-4.340,13.832,0.000,2.541,9.624,0.870,0.000,0.000,0.000,0.000,0,-0.001,0.010,784,1041,1262,950,2.747,9.339
568,0.000,-5.988,16.732,0.000,2.793,9.418,0.900,-4.340,13.832,-0.016,2.537,9.631,0.717,0.000,0.000,0.000,0.000,0,-0.002,0.010,783,1042,1262,952,2.747,9.339
569,0.000,-5.988,16.732,-0.005,2.783,9.403,0.839,-4.340,13.832,0.000,2.616,9.645,0.748,0.000,0.000,0.000,0.000,0,-0.000,0.010,783,1042,1262,952,2.838,9.339
570,0.000,-5.988,16.732,0.005,2.812,9.377,0.961,-4.340,13.832,-0.005,2.613,9.650,0.839,0.000,0.000,0.000,0.000,0,-0.000,0.010,782,1041,1262,952,2.747,9.339
571,0.000,-5.988,16.732,-0.005,2.834,9.365,0.992,-4.340,13.832,0.005,2.577,9.624,0.870,0.000,0.000,0.000,0.000,0,-0.001,0.010,784,1041,1262,953,2.747,9.339
572,0.000,-5.988,16.732,0.000,2.826,9.360,0.839,-4.340,13.832,0.000,2.573,9.612,0.870,0.000,0.000,0.000,0.000,0,-0.003,0.010,785,1041,1262,953,2.747,9.339
573,0.000,-5.988,16.732,0.000,2.841,9.365,0.870,-4.340,13.832,0.005,2.575,9.619,0.748,0.000,0.000,0.000,0.000,0,-0.001,0.010,784,1041,1261,953,2.747,9.339
574,0.000,-6.010,16.732,-0.005,2.788,9.382,0.961,-4.340,13.832,-0.005,2.599,9.609,0.687,0.000,0.000,0.000,0.000,0,-0.000,0.010,783,1040,1262,952,2.747,9.339
575,0.000,-6.010,16.732,0.005,2.769,9.399,0.961,-4.340,13.832,-0.005,2.620,9.626,0.748,0.000,0.000,0.000,0.000,0,-0.000,0.010,784,1040,1261,953,2.747,9.339
576,0.000,-6.010,16.732,0.000,2.805,9.382,0.900,-4.318,13.832,0.000,2.668,9.624,0.717,0.000,0.000,0.000,0.000,0,-0.001,0.010,784,1040,1262,953,2.838,9.339
577,0.000,-6.010,16.732,-0.005,2.834,9.406,0.809,-4.318,13.832,0.005,2.640,9.571,0.656,0.000,0.000,0.000,0.000,0,-0.002,0.010,784,1040,1262,952,2.747,9.339
578,0.000,-6.010,16.732,0.005,2.848,9.442,0.717,-4.318,13.832,0.000,2.553,9.597,0.687,0.000,0.000,0.000,0.000,0,-0.002,0.010,784,1039,1261,953,2.747,9.339
579,0.000,-6.010,16.732,0.000,2.805,9.423,0.839,-4.318,13.832,0.000,2.539,9.624,0.656,0.000,0.000,0.000,0.000,0,-0.001,0.010,783,1040,1262,952,2.747,9.339
580,0.000,-6.032,16.732,-0.005,2.786,9.418,0.809,-4.318,13.832,-0.005,2.601,9.604,0.778,0.000,0.000,0.000,0.000,0,-0.001,0.010,784,1040,1262,953,2.747,9.339
581,0.000,-6.032,16.732,0.016,2.819,9.394,0.717,-4.318,13.832,0.000,2.661,9.614,0.778,0.000,0.000,0.000,0.000,0,-0.001,0.010,784,1040,1260,953,2.838,9.430
582,0.000,-6.032,16.732,0.005,2.889,9.358,0.656,-4.318,13.832,0.000,2.656,9.628,0.656,0.000,0.000,0.000,0.000,0,-0.001,0.010,784,1039,1261,952,2.747,9.339
583,0.000,-6.010,16.732,0.005,2.869,9.394,0.626,-4.296,13.832,-0.005,2.647,9.604,0.565,0.000,0.000,0.000,0.000,0,-0.001,0.010,784,1040,1263,953,2.747,9.339
584,0.000,-6.010,16.732,0.000,2.846,9.408,0.717,-4.296,13.832,0.005,2.606,9.633,0.656,0.000,0.000,0.000,0.000,0,-0.001,0.010,784,1039,1261,952,2.747,9.339
585,0.000,-6.010,16.732,0.005,2.877,9.389,0.687,-4.296,13.832,0.000,2.616,9.648,0.687,0.000,0.000,0.000,0.000,0,-0.001,0.009,784,1039,1260,953,2.838,9.339
586,0.000,-6.010,16.732,0.000,2.874,9.403,0.687,-4.296,13.832,0.005,2.656,9.648,0.656,0.000,0.000,0.000,0.000,0,-0.001,0.010,784,1039,1262,952,2.838,9.339
587,0.000,-6.010,16.732,0.000,2.834,9.387,0.748,-4.274,13.832,-0.005,2.676,9.648,0.565,0.000,0.000,0.000,0.000,0,-0.001,0.010,787,1038,1261,953,2.838,9.339
588,0.000,-6.010,16.732,-0.005,2.824,9.403,0.717,-4.274,13.832,0.000,2.690,9.650,0.748,0.000,0.000,0.000,0.000,0,-0.001,0.010,784,1041,1259,953,2.838,9.339
589,0.000,-6.010,16.732,0.000,2.846,9.430,0.717,-4.274,13.832,0.005,2.656,9.652,0.870,0.000,0.000,0.000,0.000,0,-0.001,0.009,784,1038,1265,953,2.838,9.339
590,0.000,-6.010,16.732,-0.005,2.846,9.372,0.717,-4.252,13.832,0.000,2.661,9.648,0.809,0.000,0.000,0.000,0.000,0,-0.001,0.010,784,1038,1259,952,2.747,9.339
591,0.000,-6.010,16.732,0.000,2.836,9.351,0.656,-4.252,13.832,0.005,2.688,9.648,0.687,0.000,0.000,0.000,0.000,0,-0.001,0.010,784,1038,1257,952,2.747,9.339
592,0.000,-6.010,16.732,0.000,2.862,9.377,0.717,-4.252,13.832,-0.005,2.707,9.672,0.656,0.000,0.000,0.000,0.000,0,-0.001,0.010,783,1038,1257,953,2.838,9.430
593,0.000,-6.010,16.732,0.000,2.826,9.389,0.748,-4.230,13.832,0.005,2.690,9.712,0.626,0.000,0.000,0.000,0.000,0,-0.001,0.010,784,1037,1263,953,2.838,9.339
594,0.000,-6.010,16.732,-0.005,2.795,9.420,0.717,-4.230,13.832,0.000,2.692,9.662,0.778,0.000,0.000,0.000,0.000,0,-0.001,0.010,784,1037,1263,951,2.747,9.339
595,0.000,-6.010,16.732,0.005,2.817,9.444,0.839,-4.230,13.832,0.000,2.709,9.640,0.748,0.000,0.000,0.000,0.000,0,-0.002,0.009,784,1037,1263,951,2.838,9.339
596,0.000,-6.010,16.732,0.000,2.834,9.389,0.778,-4.208,13.832,-0.005,2.661,9.695,0.687,0.000,0.000,0.000,0.000,0,-0.001,0.010,784,1037,1260,954,2.747,9.339
597,0.000,-6.010,16.732,-0.005,2.795,9.346,0.778,-4.208,13.832,0.000,2.623,9.705,0.717,0.000,0.000,0.000,0.000,0,-0.002,0.009,784,1037,1262,952,2.747,9.339
598,0.000,-6.010,16.732,0.005,2.817,9.384,0.809,-4.208,13.832,0.000,2.673,9.662,0.839,0.000,0.000,0.000,0.000,0,-0.002,0.009,784,1037,1262,955,2.747,9.430
599,0.000,-6.010,16.732,-0.005,2.853,9.384,0.900,-4.208,13.832,0.027,2.721,9.650,0.931,0.000,0.000,0.000,0.000,0,-0.001,0.010,786,1036,1262,955,2.747,9.339
600,0.000,-6.010,16.732,0.000,2.853,9.403,0.809,-4.186,13.832,0.000,2.678,9.636,0.717,0.000,0.000,0.000,0.000,0,-0.002,0.009,784,1035,1262,955,2.747,9.339
601,0.000,-6.010,16.732,0.000,2.843,9.432,0.778,-4.186,13.832,0.005,2.668,9.628,0.565,0.000,0.000,0.000,0.000,0,-0.002,0.010,784,1036,1261,949,2.747,9.339
602,0.000,-6.010,16.732,0.005,2.836,9.444,0.961,-4.164,13.832,0.005,2.723,9.633,0.717,0.000,0.000,0.000,0.000,0,-0.002,0.009,784,1037,1261,948,2.838,9.339
603,0.000,-6.010,16.732,0.000,2.850,9.430,0.961,-4.164,13.832,-0.005,2.711,9.631,0.687,0.000,0.000,0.000,0.000,0,-0.001,0.010,783,1037,1261,948,2.838,9.339
604,0.000,-6.010,16.732,0.000,2.836,9.377,0.748,-4.164,13.832,0.000,2.678,9.669,0.717,0.000,0.000,0.000,0.000,0,-0.002,0.009,780,1037,1262,955,2.838,9.430
605,0.000,-6.010,16.732,0.005,2.848,9.394,0.656,-4.142,13.832,-0.005,2.664,9.679,0.687,0.000,0.000,0.000,0.000,0,-0.002,0.010,783,1038,1261,950,2.747,9.430
606,0.000,-6.010,16.732,0.005,2.862,9.420,0.778,-4.142,13.832,-0.016,2.664,9.683,0.717,0.000,0.000,0.000,0.000,0,-0.001,0.009,784,1037,1261,950,2.838,9.430
607,0.000,-6.010,16.732,-0.005,2.814,9.387,0.748,-4.142,13.832,0.000,2.714,9.693,0.778,0.000,0.000,0.000,0.000,0,-0.002,0.010,783,1036,1261,952,2.747,9.339
608,0.000,-6.010,16.732,-0.005,2.810,9.396,0.626,-4.142,13.832,-0.005,2.743,9.686,0.839,0.000,0.000,0.000,0.000,0,-0.000,0.009,784,1036,1262,953,2.838,9.339
609,0.000,-6.032,16.732,-0.005,2.838,9.399,0.565,-4.120,13.832,0.005,2.709,9.698,0.809,0.000,0.000,0.000,0.000,0,-0.001,0.010,781,1037,1262,953,2.838,9.339
610,0.000,-6.010,16.732,0.005,2.881,9.432,0.534,-4.120,13.832,0.016,2.678,9.700,0.809,0.000,0.000,0.000,0.000,0,-0.001,0.010,783,1036,1261,953,2.747,9.339
611,0.000,-6.010,16.732,-0.005,2.881,9.432,0.748,-4.120,13.832,0.005,2.702,9.676,0.839,0.000,0.000,0.000,0.000,0,-0.003,0.010,785,1036,1262,952,2.747,9.339
612,0.000,-6.010,16.732,-0.016,2.846,9.408,0.839,-4.098,13.832,0.000,2.711,9.676,0.870,0.000,0.000,0.000,0.000,0,-0.001,0.010,784,1036,1262,953,2.838,9.339
613,0.000,-6.010,16.732,0.005,2.853,9.415,0.839,-4.098,13.832,-0.005,2.716,9.686,0.900,0.000,0.000,0.000,0.000,0,-0.001,0.009,784,1036,1262,953,2.838,9.430
614,0.000,-6.010,16.732,-0.005,2.869,9.423,0.717,-4.098,13.832,-0.016,2.659,9.715,0.870,0.000,0.000,0.000,0.000,0,-0.000,0.010,784,1036,1262,953,2.838,9.430
615,0.000,-6.010,16.732,0.000,2.869,9.454,0.809,-4.098,13.832,0.000,2.644,9.700,0.839,0.000,0.000,0.000,0.000,0,-0.002,0.010,784,1035,1262,953,2.838,9.339
616,0.000,-6.010,16.732,0.000,2.843,9.420,1.022,-4.098,13.832,0.000,2.711,9.683,0.656,0.000,0.000,0.000,0.000,0,-0.002,0.009,784,1035,1262,953,2.838,9.339
617,0.000,-6.010,16.732,-0.005,2.843,9.396,0.931,-4.076,13.832,0.005,2.690,9.727,0.748,0.000,0.000,0.000,0.000,0,-0.001,0.009,784,1034,1262,953,2.838,9.339
618,0.000,-6.010,16.732,0.000,2.862,9.382,0.809,-4.076,13.832,0.005,2.685,9.751,0.778,0.000,0.000,0.000,0.000,0,-0.001,0.010,784,1035,1261,953,2.838,9.430
619,0.000,-6.010,16.732,0.000,2.826,9.384,0.931,-4.076,13.832,-0.005,2.738,9.739,0.717,0.000,0.000,0.000,0.000,0,-0.001,0.010,784,1035,1262,952,2.838,9.339
620,0.000,-6.010,16.732,0.000,2.802,9.423,0.839,-4.076,13.832,-0.016,2.728,9.712,0.778,0.000,0.000,0.000,0.000,0,-0.001,0.010,784,1035,1261,953,2.838,9.339
621,0.000,-6.010,16.732,-0.005,2.841,9.446,0.748,-4.054,13.832,0.005,2.721,9.717,0.870,0.000,0.000,0.000,0.000,0,-0.002,0.010,784,1035,1261,953,2.838,9.339
622,0.000,-6.010,16.732,-0.027,2.843,9.430,0.839,-4.054,13.832,0.005,2.692,9.763,0.839,0.000,0.000,0.000,0.000,0,-0.002,0.010,784,1034,1262,953,2.747,9.339
623,0.000,-6.010,16.732,0.000,2.843,9.425,0.961,-4.054,13.832,0.005,2.700,9.763,0.778,0.000,0.000,0.000,0.000,0,-0.001,0.007,784,1035,1261,952,2.747,9.339
624,0.000,-6.010,16.732,0.000,2.865,9.451,0.748,-4.054,13.832,0.005,2.743,9.741,0.931,0.000,0.000,0.000,0.000,0,-0.002,0.010,784,1034,1261,953,2.838,9.430
625,0.000,-6.010,16.732,0.005,2.908,9.432,0.870,-4.054,13.832,0.005,2.700,9.715,0.931,0.000,0.000,0.000,0.000,0,-0.002,0.009,784,1034,1262,953,2.838,9.430
626,0.000,-6.010,16.732,0.000,2.898,9.413,0.931,-4.032,13.832,-0.005,2.731,9.719,0.931,0.000,0.000,0.000,0.000,0,-0.002,0.010,787,1034,1260,953,2.838,9.339
627,0.000,-6.010,16.732,0.000,2.836,9.394,0.900,-4.032,13.832,-0.005,2.716,9.746,0.809,0.000,0.000,0.000,0.000,0,-0.002,0.009,784,1037,1259,952,2.838,9.430
628,0.000,-6.010,16.732,0.000,2.836,9.370,0.809,-4.032,13.832,0.005,2.743,9.767,0.900,0.000,0.000,0.000,0.000,0,-0.002,0.009,784,1033,1265,953,2.838,9.430
629,0.000,-6.010,16.732,0.005,2.858,9.408,0.809,-4.010,13.832,-0.016,2.743,9.755,0.961,0.000,0.000,0.000,0.000,0,-0.002,0.010,784,1034,1263,952,2.838,9.339
630,0.000,-6.010,16.732,0.000,2.853,9.434,0.809,-4.010,13.832,0.000,2.700,9.715,0.992,0.000,0.000,0.000,0.000,0,-0.002,0.010,784,1033,1257,953,2.747,9.339
631,0.000,-6.010,16.732,-0.005,2.858,9.391,0.870,-4.010,13.832,-0.005,2.690,9.722,1.022,0.000,0.000,0.000,0.000,0,-0.002,0.010,784,1034,1258,952,2.747,9.339
632,0.000,-6.010,16.732,0.000,2.862,9.423,0.961,-4.010,13.832,-0.027,2.692,9.751,0.900,0.000,0.000,0.000,0.000,0,-0.002,0.010,784,1033,1262,953,2.838,9.339
633,0.000,-6.010,16.732,0.005,2.829,9.425,0.900,-4.010,13.832,0.000,2.647,9.743,0.931,0.000,0.000,0.000,0.000,0,-0.002,0.010,784,1033,1262,952,2.838,9.430
634,0.000,-6.010,16.732,0.000,2.783,9.384,0.961,-4.010,13.832,-0.005,2.625,9.719,0.900,0.000,0.000,0.000,0.000,0,-0.002,0.009,784,1033,1262,952,2.838,9.339
635,0.000,-6.010,16.732,0.000,2.810,9.418,0.931,-4.010,13.832,-0.005,2.690,9.683,0.931,0.000,0.000,0.000,0.000,0,-0.002,0.010,784,1033,1260,953,2.838,9.339
636,0.000,-6.010,16.732,-0.005,2.872,9.454,0.931,-4.010,13.832,0.000,2.683,9.691,1.083,0.000,0.000,0.000,0.000,0,-0.002,0.009,784,1033,1262,951,2.747,9.339
637,0.000,-6.010,16.732,-0.005,2.838,9.437,0.900,-4.010,13.832,0.000,2.628,9.758,1.114,0.000,0.000,0.000,0.000,0,-0.001,0.009,784,1032,1262,952,2.747,9.339
638,0.000,-6.010,16.732,-0.005,2.790,9.434,0.870,-4.010,13.832,-0.005,2.640,9.779,0.900,0.000,0.000,0.000,0.000,0,-0.001,0.009,786,1033,1262,951,2.747,9.339
639,0.000,-6.010,16.732,-0.016,2.836,9.458,0.992,-4.010,13.832,0.000,2.683,9.724,0.961,0.000,0.000,0.000,0.000,0,-0.002,0.009,784,1033,1262,948,2.838,9.430
640,0.000,-6.032,16.732,0.000,2.790,9.382,1.022,-4.010,13.832,0.000,2.707,9.703,1.053,0.000,0.000,0.000,0.000,0,-0.002,0.010,784,1033,1262,948,2.838,9.430
641,0.000,-6.032,16.732,0.005,2.805,9.332,1.053,-4.010,13.832,-0.005,2.709,9.719,0.992,0.000,0.000,0.000,0.000,0,-0.002,0.009,784,1033,1261,953,2.747,9.430
642,0.000,-6.032,16.732,0.005,2.826,9.365,1.114,-4.010,13.832,0.000,2.709,9.731,0.931,0.000,0.000,0.000,0.000,0,-0.001,0.009,784,1033,1261,956,2.747,9.430
643,0.000,-6.032,16.732,0.000,2.790,9.391,1.083,-4.010,13.832,0.000,2.716,9.715,0.992,0.000,0.000,0.000,0.000,0,-0.002,0.009,780,1033,1262,952,2.747,9.339
644,0.000,-6.032,16.732,0.000,2.826,9.423,0.931,-3.988,13.832,0.000,2.690,9.707,0.961,0.000,0.000,0.000,0.000,0,-0.001,0.009,784,1032,1262,951,2.747,9.247
645,0.000,-6.032,16.732,0.000,2.831,9.411,0.900,-3.988,13.832,0.005,2.666,9.736,0.931,0.000,0.000,0.000,0.000,0,-0.002,0.009,784,1033,1261,950,2.747,9.339
646,0.000,-6.032,16.732,0.005,2.850,9.379,1.114,-4.010,13.832,0.005,2.647,9.717,0.961,0.000,0.000,0.000,0.000,0,-0.004,0.009,784,1033,1261,953,2.747,9.339
647,0.000,-6.032,16.732,0.000,2.826,9.394,1.114,-4.010,13.832,0.000,2.642,9.681,0.961,0.000,0.000,0.000,0.000,0,-0.001,0.009,784,1033,1261,952,2.747,9.339
648,0.000,-6.032,16.732,0.000,2.824,9.444,1.053,-4.010,13.832,-0.016,2.673,9.683,0.961,0.000,0.000,0.000,0.000,0,-0.002,0.009,784,1033,1262,952,2.747,9.339
649,0.000,-6.032,16.732,-0.005,2.824,9.456,0.961,-4.010,13.832,0.000,2.690,9.695,0.961,0.000,0.000,0.000,0.000,0,-0.003,0.009,783,1034,1262,953,2.838,9.339
650,0.000,-6.032,16.732,0.000,2.802,9.415,1.022,-3.988,13.832,0.000,2.726,9.686,1.022,0.000,0.000,0.000,0.000,0,-0.004,0.009,785,1033,1261,952,2.747,9.339
651,0.000,-6.054,16.732,0.000,2.817,9.389,1.205,-3.988,13.832,-0.016,2.707,9.660,1.022,0.000,0.000,0.000,0.000,0,-0.004,0.009,784,1034,1261,952,2.747,9.430
652,0.000,-6.054,16.732,0.005,2.795,9.379,1.266,-3.988,13.832,-0.005,2.702,9.645,1.083,0.000,0.000,0.000,0.000,0,-0.001,0.009,784,1033,1262,952,2.747,9.430
653,0.000,-6.054,16.732,-0.005,2.814,9.406,1.205,-3.988,13.832,0.000,2.661,9.679,0.992,0.000,0.000,0.000,0.000,0,-0.001,0.009,784,1033,1262,952,2.747,9.339
654,0.000,-6.054,16.732,0.000,2.865,9.413,1.144,-3.988,13.832,0.000,2.628,9.705,0.992,0.000,0.000,0.000,0.000,0,-0.002,0.009,784,1033,1262,952,2.747,9.339
655,0.000,-6.054,16.732,-0.005,2.826,9.384,1.144,-3.988,13.832,-0.016,2.709,9.674,1.053,0.000,0.000,0.000,0.000,0,-0.002,0.009,784,1033,1262,952,2.747,9.339
656,0.000,-6.054,16.732,-0.016,2.774,9.432,1.205,-3.988,13.832,-0.005,2.676,9.619,1.022,0.000,0.000,0.000,0.000,0,-0.002,0.009,784,1032,1261,952,2.747,9.339
657,0.000,-6.054,16.732,0.000,2.819,9.461,1.144,-3.988,13.832,-0.005,2.654,9.600,1.083,0.000,0.000,0.000,0.000,0,-0.001,0.009,784,1034,1262,952,2.838,9.339
658,0.000,-6.054,16.732,0.000,2.831,9.427,1.328,-3.966,13.832,0.005,2.683,9.619,1.022,0.000,0.000,0.000,0.000,0,-0.001,0.009,784,1034,1262,953,2.747,9.339
659,0.000,-6.076,16.732,-0.005,2.793,9.449,1.389,-3.966,13.832,0.016,2.726,9.626,0.900,0.000,0.000,0.000,0.000,0,-0.001,0.009,783,1034,1260,953,2.747,9.430
660,0.000,-6.076,16.732,0.000,2.817,9.466,1.389,-3.966,13.832,0.000,2.738,9.631,1.083,0.000,0.000,0.000,0.000,0,-0.001,0.009,787,1034,1262,952,2.747,9.430
661,0.000,-6.076,16.732,0.000,2.814,9.446,1.205,-3.966,13.832,0.000,2.683,9.626,1.114,0.000,0.000,0.000,0.000,0,-0.001,0.009,784,1036,1262,952,2.747,9.339
662,0.000,-6.076,16.732,-0.005,2.822,9.446,1.083,-3.944,13.832,0.005,2.647,9.593,0.992,0.000,0.000,0.000,0.000,0,-0.001,0.007,784,1034,1261,952,2.747,9.430
663,0.000,-6.076,16.732,0.005,2.812,9.427,1.266,-3.944,13.832,-0.005,2.692,9.571,1.053,0.000,0.000,0.000,0.000,0,-0.001,0.009,784,1034,1261,952,2.747,9.430
664,0.000,-6.076,16.732,0.000,2.843,9.442,1.419,-3.944,13.832,0.005,2.750,9.547,1.144,0.000,0.000,0.000,0.000,0,-0.001,0.009,784,1034,1262,952,2.747,9.430
665,0.000,-6.098,16.732,-0.005,2.747,9.444,1.450,-3.944,13.832,0.005,2.685,9.542,1.114,0.000,0.000,0.000,0.000,0,-0.001,0.009,787,1033,1260,952,2.747,9.430
666,0.000,-6.098,16.732,0.000,2.798,9.494,1.480,-3.922,13.832,0.005,2.680,9.540,1.175,0.000,0.000,0.000,0.000,0,-0.001,0.009,784,1035,1260,952,2.747,9.339
667,0.000,-6.098,16.732,0.000,2.810,9.482,1.389,-3.922,13.832,0.005,2.676,9.609,1.053,0.000,0.000,0.000,0.000,0,-0.001,0.009,783,1033,1265,952,2.838,9.430
668,0.000,-6.119,16.732,-0.016,2.728,9.466,1.328,-3.922,13.832,0.000,2.738,9.595,1.114,0.000,0.000,0.000,0.000,0,-0.001,0.009,784,1033,1263,952,2.747,9.430
669,0.000,-6.119,16.732,0.000,2.781,9.482,1.328,-3.900,13.832,-0.005,2.735,9.549,1.205,0.000,0.000,0.000,0.000,0,-0.001,0.010,784,1033,1257,952,2.747,9.430
670,0.000,-6.119,16.732,0.000,2.877,9.487,1.389,-3.900,13.832,0.000,2.688,9.564,1.144,0.000,0.000,0.000,0.000,0,-0.001,0.009,784,1032,1257,952,2.747,9.430
671,0.000,-6.119,16.732,0.005,2.817,9.478,1.572,-3.900,13.832,0.000,2.735,9.545,1.144,0.000,0.000,0.000,0.000,0,-0.001,0.009,784,1033,1260,953,2.655,9.430
672,0.000,-6.119,16.732,0.000,2.769,9.494,1.633,-3.878,13.832,0.000,2.714,9.509,1.144,0.000,0.000,0.000,0.000,0,-0.001,0.009,782,1032,1265,951,2.747,9.430
673,0.000,-6.141,16.732,0.005,2.814,9.502,1.389,-3.878,13.832,0.005,2.700,9.518,1.236,0.000,0.000,0.000,0.000,0,-0.001,0.009,784,1033,1262,952,2.838,9.430
674,0.000,-6.141,16.732,0.005,2.814,9.480,1.266,-3.878,13.832,0.000,2.709,9.545,1.205,0.000,0.000,0.000,0.000,0,-0.001,0.009,784,1032,1260,952,2.747,9.430
675,0.000,-6.141,16.732,0.016,2.802,9.475,1.266,-3.878,13.832,-0.005,2.659,9.533,1.114,0.000,0.000,0.000,0.000,0,-0.001,0.009,784,1032,1261,950,2.747,9.430
676,0.000,-6.141,16.732,0.005,2.814,9.487,1.419,-3.856,13.832,0.000,2.656,9.502,1.175,0.000,0.000,0.000,0.000,0,-0.001,0.009,784,1032,1262,954,2.747,9.430
677,0.000,-6.141,16.732,0.005,2.838,9.482,1.633,-3.856,13.832,0.000,2.690,9.482,1.175,0.000,0.000,0.000,0.000,0,-0.001,0.010,785,1032,1262,955,2.747,9.430
678,0.000,-6.141,16.732,0.005,2.848,9.451,1.389,-3.856,13.832,0.000,2.704,9.499,1.114,0.000,0.000,0.000,0.000,0,-0.001,0.009,784,1032,1261,947,2.747,9.430
679,0.000,-6.141,16.732,-0.016,2.824,9.463,1.328,-3.856,13.832,-0.005,2.731,9.521,1.205,0.000,0.000,0.000,0.000,0,-0.002,0.008,784,1031,1261,953,2.747,9.430
680,0.000,-6.141,16.732,0.000,2.831,9.502,1.419,-3.834,13.832,-0.016,2.752,9.502,1.328,0.000,0.000,0.000,0.000,0,-0.001,0.009,783,1032,1261,952,2.838,9.430
681,0.000,-6.141,16.732,-0.005,2.872,9.494,1.358,-3.834,13.832,0.005,2.711,9.482,1.205,0.000,0.000,0.000,0.000,0,-0.001,0.010,783,1031,1262,954,2.838,9.430
682,0.000,-6.141,16.732,0.000,2.805,9.458,1.297,-3.812,13.832,0.000,2.690,9.470,1.053,0.000,0.000,0.000,0.000,0,-0.002,0.009,780,1031,1262,955,2.747,9.430
683,0.000,-6.163,16.732,0.005,2.733,9.456,1.419,-3.812,13.832,-0.005,2.762,9.458,0.992,0.000,0.000,0.000,0.000,0,-0.001,0.009,784,1034,1262,950,2.747,9.430
684,0.000,-6.163,16.732,0.027,2.740,9.482,1.450,-3.790,13.832,-0.005,2.764,9.473,0.961,0.000,0.000,0.000,0.000,0,-0.001,0.010,784,1031,1261,950,2.838,9.430
685,0.000,-6.185,16.732,0.000,2.783,9.497,1.389,-3.790,13.832,0.005,2.731,9.475,1.175,0.000,0.000,0.000,0.000,0,-0.002,0.009,784,1030,1261,952,2.747,9.430
686,0.000,-6.185,16.732,-0.005,2.814,9.552,1.328,-3.768,13.832,0.000,2.700,9.446,1.328,0.000,0.000,0.000,0.000,0,0.000,0.009,784,1031,1261,952,2.655,9.430
687,0.000,-6.185,16.732,0.000,2.807,9.573,1.358,-3.768,13.832,0.000,2.697,9.427,1.236,0.000,0.000,0.000,0.000,0,-0.001,0.009,784,1030,1262,951,2.655,9.430
688,0.000,-6.185,16.732,0.000,2.810,9.523,1.205,-3.768,13.832,-0.005,2.755,9.430,1.114,0.000,0.000,0.000,0.000,0,-0.001,0.010,784,1031,1262,952,2.747,9.430
689,0.000,-6.207,16.732,0.000,2.807,9.528,1.266,-3.746,13.832,-0.005,2.769,9.466,1.114,0.000,0.000,0.000,0.000,0,-0.002,0.010,785,1030,1261,952,2.747,9.522
690,0.000,-6.207,16.732,-0.005,2.786,9.509,1.389,-3.724,13.832,-0.005,2.795,9.502,1.114,0.000,0.000,0.000,0.000,0,-0.001,0.010,784,1030,1261,952,2.747,9.522
691,0.000,-6.207,16.732,0.000,2.774,9.480,1.328,-3.724,13.832,0.000,2.805,9.487,1.236,0.000,0.000,0.000,0.000,0,0.000,0.009,784,1030,1262,952,2.747,9.522
692,0.000,-6.207,16.732,0.000,2.793,9.511,1.358,-3.702,13.832,-0.005,2.747,9.492,1.358,0.000,0.000,0.000,0.000,0,-0.000,0.010,784,1030,1261,951,2.747,9.522
693,0.000,-6.229,16.732,-0.005,2.802,9.502,1.389,-3.702,13.832,0.000,2.762,9.480,1.266,0.000,0.000,0.000,0.000,0,-0.001,0.010,784,1030,1261,952,2.747,9.430
694,0.000,-6.229,16.732,0.005,2.774,9.497,1.266,-3.680,13.832,-0.005,2.779,9.461,1.205,0.000,0.000,0.000,0.000,0,-0.001,0.010,784,1029,1261,952,2.747,9.430
695,0.000,-6.229,16.732,0.000,2.771,9.506,1.175,-3.680,13.832,0.005,2.822,9.434,1.358,0.000,0.000,0.000,0.000,0,-0.001,0.009,784,1029,1261,952,2.747,9.430
696,0.000,-6.229,16.732,0.000,2.790,9.502,1.297,-3.659,13.832,-0.005,2.848,9.446,1.389,0.000,0.000,0.000,0.000,0,-0.001,0.010,784,1030,1262,952,2.747,9.430
697,0.000,-6.251,16.732,0.000,2.764,9.523,1.266,-3.637,13.832,-0.005,2.810,9.482,1.205,0.000,0.000,0.000,0.000,0,-0.001,0.009,784,1029,1261,951,2.747,9.430
698,0.000,-6.251,16.732,-0.005,2.755,9.525,1.297,-3.615,13.832,0.005,2.795,9.475,1.114,0.000,0.000,0.000,0.000,0,-0.001,0.010,784,1029,1262,952,2.747,9.430
699,0.000,-6.251,16.732,0.000,2.750,9.525,1.236,-3.615,13.832,-0.005,2.781,9.480,1.266,0.000,0.000,0.000,0.000,0,-0.001,0.010,787,1029,1262,952,2.747,9.430
700,0.000,-6.273,16.732,-0.016,2.767,9.504,1.266,-3.593,13.832,-0.005,2.826,9.458,1.297,0.000,0.000,0.000,0.000,0,-0.001,0.010,784,1031,1263,952,2.747,9.522
701,0.000,-6.273,16.732,0.000,2.781,9.530,1.205,-3.571,13.832,-0.016,2.793,9.458,1.389,0.000,0.000,0.000,0.000,0,-0.001,0.009,783,1029,1261,952,2.747,9.522
702,0.000,-6.273,16.732,0.000,2.769,9.511,1.205,-3.571,13.832,0.005,2.790,9.454,1.266,0.000,0.000,0.000,0.000,0,-0.001,0.010,784,1028,1261,951,2.747,9.522
703,0.000,-6.295,16.732,0.027,2.740,9.497,1.266,-3.549,13.832,0.000,2.881,9.449,1.297,0.000,0.000,0.000,0.000,0,-0.001,0.010,784,1029,1262,952,2.747,9.430
704,0.000,-6.295,16.732,0.005,2.738,9.502,1.205,-3.527,13.832,0.000,2.874,9.473,1.358,0.000,0.000,0.000,0.000,0,-0.001,0.010,787,1029,1260,952,2.747,9.522
705,0.000,-6.295,16.732,0.005,2.740,9.545,1.144,-3.527,13.832,0.000,2.781,9.475,1.297,0.000,0.000,0.000,0.000,0,-0.001,0.009,784,1026,1264,952,2.747,9.430
706,0.000,-6.317,16.732,-0.016,2.764,9.528,1.175,-3.505,13.832,0.000,2.752,9.485,1.328,0.000,0.000,0.000,0.000,0,-0.001,0.009,783,1029,1265,951,2.655,9.430
707,0.000,-6.317,16.732,0.000,2.759,9.502,1.236,-3.505,13.832,-0.005,2.788,9.549,1.266,0.000,0.000,0.000,0.000,0,-0.001,0.010,784,1029,1263,953,2.655,9.430
708,0.000,-6.317,16.732,0.005,2.771,9.533,1.205,-3.483,13.832,-0.005,2.824,9.549,1.297,0.000,0.000,0.000,0.000,0,-0.001,0.009,784,1028,1260,950,2.655,9.522
709,0.000,-6.339,16.732,0.005,2.795,9.506,0.992,-3.483,13.832,0.000,2.843,9.545,1.205,0.000,0.000,0.000,0.000,0,-0.001,0.010,784,1028,1257,952,2.747,9.522
710,0.000,-6.339,16.732,0.000,2.747,9.506,1.022,-3.461,13.832,0.005,2.807,9.533,1.175,0.000,0.000,0.000,0.000,0,-0.001,0.009,783,1028,1265,951,2.747,9.430
711,0.000,-6.339,16.732,-0.005,2.707,9.509,1.114,-3.461,13.832,-0.005,2.824,9.516,1.175,0.000,0.000,0.000,0.000,0,-0.001,0.010,784,1028,1265,950,2.747,9.522
712,0.000,-6.361,16.732,-0.005,2.716,9.490,1.297,-3.439,13.832,0.000,2.867,9.554,1.236,0.000,0.000,0.000,0.000,0,-0.001,0.009,784,1028,1260,951,2.747,9.430
713,0.000,-6.361,16.732,0.016,2.700,9.494,1.266,-3.439,13.832,-0.005,2.855,9.612,1.205,0.000,0.000,0.000,0.000,0,-0.001,0.010,784,1028,1260,952,2.747,9.430
714,0.000,-6.383,16.732,0.005,2.702,9.499,1.144,-3.417,13.832,-0.005,2.889,9.557,1.266,0.000,0.000,0.000,0.000,0,-0.001,0.010,784,1028,1260,952,2.655,9.430
715,0.000,-6.383,16.732,0.005,2.752,9.492,1.144,-3.395,13.832,-0.005,2.862,9.530,1.175,0.000,0.000,0.000,0.000,0,-0.002,0.010,784,1028,1262,950,2.655,9.430
716,0.000,-6.383,16.732,0.005,2.771,9.478,1.205,-3.395,13.832,0.005,2.822,9.576,1.205,0.000,0.000,0.000,0.000,0,-0.001,0.010,785,1027,1261,954,2.655,9.430
717,0.000,-6.383,16.732,0.016,2.733,9.451,1.114,-3.373,13.832,-0.016,2.829,9.585,1.236,0.000,0.000,0.000,0.000,0,-0.002,0.010,784,1026,1262,953,2.655,9.430
718,0.000,-6.405,16.732,0.000,2.654,9.394,0.992,-3.373,13.832,0.000,2.886,9.609,1.205,0.000,0.000,0.000,0.000,0,-0.001,0.011,784,1027,1262,948,2.747,9.430
719,0.000,-6.405,16.732,-0.005,2.700,9.439,0.961,-3.351,13.832,0.000,2.951,9.609,1.328,0.000,0.000,0.000,0.000,0,-0.002,0.010,784,1027,1262,955,2.747,9.430
720,0.000,-6.427,16.732,0.000,2.733,9.478,1.083,-3.329,13.832,0.000,2.893,9.583,1.297,0.000,0.000,0.000,0.000,0,-0.002,0.010,784,1027,1262,955,2.655,9.430
721,0.000,-6.427,16.732,0.000,2.673,9.420,1.236,-3.329,13.832,0.000,2.826,9.612,1.175,0.000,0.000,0.000,0.000,0,-0.002,0.010,782,1027,1262,955,2.655,9.339
722,0.000,-6.449,16.732,0.000,2.661,9.411,1.175,-3.329,13.832,-0.005,2.843,9.600,1.083,0.000,0.000,0.000,0.000,0,-0.002,0.010,784,1030,1262,950,2.655,9.430
723,0.000,-6.449,16.732,-0.005,2.676,9.434,1.053,-3.307,13.832,0.000,2.850,9.612,1.022,0.000,0.000,0.000,0.000,0,-0.002,0.011,784,1027,1262,950,2.655,9.430
724,0.000,-6.449,16.732,0.016,2.716,9.415,1.022,-3.307,13.832,-0.005,2.810,9.681,1.114,0.000,0.000,0.000,0.000,0,-0.002,0.010,784,1027,1262,952,2.655,9.339
725,0.000,-6.471,16.732,0.005,2.716,9.396,1.083,-3.307,13.832,0.000,2.817,9.683,1.114,0.000,0.000,0.000,0.000,0,-0.001,0.010,784,1027,1262,952,2.655,9.339
726,0.000,-6.471,16.732,0.000,2.683,9.458,1.083,-3.285,13.832,-0.005,2.860,9.650,1.114,0.000,0.000,0.000,0.000,0,-0.001,0.010,784,1026,1262,951,2.655,9.430
727,0.000,-6.471,16.732,-0.005,2.673,9.485,1.266,-3.285,13.832,-0.016,2.829,9.645,1.114,0.000,0.000,0.000,0.000,0,-0.001,0.009,784,1027,1262,952,2.655,9.339
728,0.000,-6.493,16.732,-0.005,2.683,9.434,1.236,-3.285,13.832,0.000,2.848,9.655,1.083,0.000,0.000,0.000,0.000,0,-0.003,0.009,785,1026,1262,952,2.655,9.339
729,0.000,-6.493,16.732,0.000,2.666,9.382,1.297,-3.285,13.832,-0.005,2.862,9.657,1.022,0.000,0.000,0.000,0.000,0,-0.001,0.009,784,1026,1261,952,2.655,9.430
730,0.000,-6.515,16.732,-0.005,2.647,9.415,1.358,-3.263,13.832,-0.005,2.819,9.681,1.053,0.000,0.000,0.000,0.000,0,-0.000,0.009,784,1026,1262,951,2.655,9.430
731,0.000,-6.515,16.732,0.005,2.678,9.403,1.236,-3.263,13.832,0.000,2.829,9.705,0.809,0.000,0.000,0.000,0.000,0,-0.000,0.010,784,1026,1262,952,2.655,9.430
732,0.000,-6.537,16.732,0.000,2.656,9.370,1.175,-3.263,13.832,-0.005,2.817,9.676,0.900,0.000,0.000,0.000,0.000,0,-0.002,0.009,784,1026,1262,952,2.655,9.339
733,0.000,-6.537,16.732,0.000,2.606,9.437,1.297,-3.263,13.832,0.000,2.800,9.660,1.083,0.000,0.000,0.000,0.000,0,-0.002,0.009,784,1026,1262,951,2.564,9.339
734,0.000,-6.559,16.732,0.000,2.671,9.442,1.266,-3.263,13.832,-0.005,2.853,9.674,1.236,0.000,0.000,0.000,0.000,0,-0.001,0.009,784,1026,1262,952,2.655,9.339
735,0.000,-6.559,16.732,-0.005,2.707,9.425,1.266,-3.241,13.832,0.000,2.891,9.674,1.205,0.000,0.000,0.000,0.000,0,-0.001,0.010,784,1026,1263,952,2.655,9.339
736,0.000,-6.559,16.732,0.000,2.678,9.454,1.236,-3.241,13.832,0.000,2.846,9.703,1.144,0.000,0.000,0.000,0.000,0,-0.001,0.009,783,1026,1262,952,2.564,9.430
737,0.000,-6.581,16.732,-0.016,2.644,9.401,1.175,-3.241,13.832,-0.005,2.786,9.712,1.175,0.000,0.000,0.000,0.000,0,-0.001,0.009,783,1026,1262,952,2.655,9.430
738,0.000,-6.581,16.732,0.000,2.649,9.415,1.297,-3.241,13.832,0.005,2.807,9.700,1.175,0.000,0.000,0.000,0.000,0,-0.001,0.009,787,1025,1263,952,2.655,9.339
739,0.000,-6.603,16.732,0.000,2.637,9.427,1.633,-3.241,13.832,0.005,2.862,9.707,1.175,0.000,0.000,0.000,0.000,0,-0.002,0.009,784,1026,1262,952,2.655,9.430
740,0.000,-6.603,16.732,0.000,2.652,9.387,1.602,-3.241,13.832,0.000,2.858,9.703,1.236,0.000,0.000,0.000,0.000,0,-0.001,0.008,783,1025,1261,952,2.564,9.339
741,0.000,-6.625,16.732,0.000,2.680,9.370,1.358,-3.241,13.832,0.000,2.829,9.676,1.328,0.000,0.000,0.000,0.000,0,-0.001,0.009,784,1025,1262,952,2.564,9.339
742,0.000,-6.625,16.732,-0.005,2.678,9.379,1.297,-3.241,13.832,0.000,2.771,9.691,1.266,0.000,0.000,0.000,0.000,0,-0.001,0.009,784,1025,1262,952,2.564,9.339
743,0.000,-6.625,16.732,0.000,2.680,9.389,1.297,-3.241,13.832,0.000,2.738,9.705,1.236,0.000,0.000,0.000,0.000,0,-0.001,0.009,787,1025,1261,952,2.564,9.339
744,0.000,-6.625,16.732,0.000,2.733,9.396,1.419,-3.241,13.832,0.000,2.764,9.712,1.114,0.000,0.000,0.000,0.000,0,-0.001,0.009,784,1024,1262,952,2.655,9.339
745,0.000,-6.625,16.732,0.000,2.750,9.396,1.541,-3.241,13.832,0.000,2.779,9.717,1.053,0.000,0.000,0.000,0.000,0,-0.002,0.009,784,1025,1262,953,2.655,9.339
746,0.000,-6.625,16.732,0.005,2.709,9.413,1.541,-3.241,13.832,-0.005,2.812,9.688,1.114,0.000,0.000,0.000,0.000,0,-0.002,0.009,784,1025,1263,952,2.655,9.339
747,0.000,-6.625,16.732,0.000,2.668,9.434,1.541,-3.241,13.832,0.005,2.786,9.669,1.053,0.000,0.000,0.000,0.000,0,-0.002,0.009,784,1024,1258,953,2.655,9.339
748,0.000,-6.647,16.732,0.000,2.659,9.427,1.694,-3.241,13.832,0.000,2.786,9.664,1.053,0.000,0.000,0.000,0.000,0,-0.002,0.009,784,1025,1260,953,2.747,9.339
749,0.000,-6.647,16.732,0.005,2.690,9.446,1.541,-3.241,13.832,0.005,2.810,9.681,1.144,0.000,0.000,0.000,0.000,0,-0.002,0.010,784,1025,1263,953,2.655,9.339
750,0.000,-6.647,16.732,0.016,2.711,9.430,1.328,-3.241,13.832,0.000,2.841,9.662,1.053,0.000,0.000,0.000,0.000,0,-0.001,0.009,784,1025,1263,951,2.655,9.430
751,0.000,-6.669,16.732,0.016,2.704,9.430,1.389,-3.241,13.832,0.000,2.755,9.686,1.114,0.000,0.000,0.000,0.000,0,-0.001,0.010,784,1024,1261,951,2.655,9.339
752,0.000,-6.669,16.732,0.000,2.700,9.425,1.724,-3.241,13.832,-0.005,2.769,9.664,1.053,0.000,0.000,0.000,0.000,0,-0.001,0.010,784,1024,1260,952,2.655,9.430
753,0.000,-6.669,16.732,0.000,2.723,9.406,1.755,-3.241,13.832,0.016,2.771,9.672,1.022,0.000,0.000,0.000,0.000,0,-0.001,0.009,784,1024,1262,952,2.655,9.430
754,0.000,-6.669,16.732,-0.016,2.702,9.396,1.663,-3.263,13.832,-0.005,2.745,9.741,1.114,0.000,0.000,0.000,0.000,0,-0.001,0.010,784,1024,1262,954,2.655,9.430
755,0.000,-6.669,16.732,0.000,2.702,9.403,1.541,-3.263,13.832,-0.005,2.764,9.715,0.992,0.000,0.000,0.000,0.000,0,-0.001,0.010,782,1024,1262,950,2.655,9.339
756,0.000,-6.669,16.732,-0.005,2.735,9.432,1.694,-3.263,13.832,0.000,2.719,9.679,1.053,0.000,0.000,0.000,0.000,0,-0.002,0.010,783,1022,1262,953,2.655,9.339
757,0.000,-6.669,16.732,-0.016,2.721,9.451,1.785,-3.263,13.832,0.000,2.743,9.650,1.053,0.000,0.000,0.000,0.000,0,-0.001,0.011,784,1024,1262,948,2.655,9.339
758,0.000,-6.669,16.732,0.000,2.690,9.423,1.694,-3.263,13.832,0.000,2.781,9.612,1.114,0.000,0.000,0.000,0.000,0,-0.001,0.010,784,1024,1262,955,2.655,9.339
759,0.000,-6.669,16.732,0.000,2.707,9.370,1.633,-3.263,13.832,0.000,2.769,9.616,1.083,0.000,0.000,0.000,0.000,0,-0.001,0.010,784,1023,1262,955,2.655,9.430
760,0.000,-6.691,16.732,-0.005,2.719,9.382,1.724,-3.285,13.832,0.000,2.735,9.619,0.992,0.000,0.000,0.000,0.000,0,-0.001,0.011,780,1024,1262,953,2.655,9.430
761,0.000,-6.691,16.732,0.000,2.711,9.389,1.724,-3.285,13.832,0.000,2.719,9.626,1.053,0.000,0.000,0.000,0.000,0,-0.000,0.011,784,1023,1262,950,2.655,9.339
762,0.000,-6.691,16.732,0.005,2.738,9.394,1.602,-3.285,13.832,0.005,2.723,9.640,1.144,0.000,0.000,0.000,0.000,0,-0.002,0.012,784,1023,1262,953,2.655,9.339
763,0.000,-6.669,16.732,0.005,2.733,9.387,1.541,-3.285,13.832,0.005,2.740,9.636,1.053,0.000,0.000,0.000,0.000,0,-0.002,0.011,784,1023,1262,952,2.655,9.339
764,0.000,-6.669,16.732,0.005,2.769,9.379,1.633,-3.285,13.832,0.005,2.769,9.633,1.022,0.000,0.000,0.000,0.000,0,-0.001,0.011,783,1023,1262,953,2.655,9.339
765,0.000,-6.669,16.732,0.000,2.771,9.396,1.633,-3.285,13.832,-0.005,2.774,9.612,0.961,0.000,0.000,0.000,0.000,0,-0.002,0.011,784,1023,1263,952,2.655,9.339
766,0.000,-6.669,16.732,0.000,2.733,9.396,1.663,-3.285,13.832,0.000,2.750,9.593,0.900,0.000,0.000,0.000,0.000,0,-0.003,0.011,784,1024,1262,953,2.655,9.339
767,0.000,-6.669,16.732,-0.005,2.704,9.408,1.480,-3.285,13.832,-0.005,2.733,9.612,0.839,0.000,0.000,0.000,0.000,0,-0.003,0.011,785,1023,1262,953,2.747,9.339
768,0.000,-6.669,16.732,0.000,2.697,9.430,1.450,-3.307,13.832,0.000,2.747,9.636,0.870,0.000,0.000,0.000,0.000,0,-0.001,0.011,784,1023,1262,953,2.747,9.339
769,0.000,-6.669,16.732,-0.005,2.735,9.420,1.511,-3.307,13.832,-0.005,2.738,9.664,0.839,0.000,0.000,0.000,0.000,0,0.000,0.012,784,1023,1263,952,2.655,9.339
770,0.000,-6.669,16.732,0.005,2.723,9.384,1.541,-3.307,13.832,-0.005,2.711,9.688,0.839,0.000,0.000,0.000,0.000,0,-0.000,0.012,784,1023,1263,952,2.655,9.339
771,0.000,-6.669,16.732,0.000,2.740,9.391,1.541,-3.307,13.832,0.000,2.752,9.650,0.961,0.000,0.000,0.000,0.000,0,-0.001,0.012,784,1023,1263,953,2.655,9.430
772,0.000,-6.669,16.732,0.000,2.759,9.396,1.541,-3.307,13.832,0.000,2.752,9.648,0.931,0.000,0.000,0.000,0.000,0,-0.001,0.011,784,1023,1263,953,2.655,9.339
773,0.000,-6.669,16.732,0.000,2.716,9.387,1.633,-3.329,13.832,0.000,2.690,9.645,1.022,0.000,0.000,0.000,0.000,0,-0.001,0.012,784,1023,1262,952,2.655,9.339
774,0.000,-6.669,16.732,-0.005,2.711,9.389,1.419,-3.329,13.832,0.005,2.711,9.581,1.053,0.000,0.000,0.000,0.000,0,-0.001,0.012,784,1023,1263,953,2.655,9.339
775,0.000,-6.669,16.732,-0.016,2.740,9.411,1.358,-3.329,13.832,0.000,2.719,9.578,1.053,0.000,0.000,0.000,0.000,0,-0.001,0.012,784,1023,1263,952,2.747,9.339
776,0.000,-6.669,16.732,0.016,2.731,9.391,1.358,-3.329,13.832,0.000,2.666,9.609,0.900,0.000,0.000,0.000,0.000,0,-0.001,0.011,784,1022,1263,952,2.655,9.339
777,0.000,-6.669,16.732,0.000,2.731,9.379,1.419,-3.351,13.832,0.000,2.666,9.602,0.839,0.000,0.000,0.000,0.000,0,-0.002,0.012,784,1023,1263,952,2.655,9.339
778,0.000,-6.669,16.732,0.005,2.733,9.379,1.358,-3.351,13.832,0.000,2.735,9.597,0.992,0.000,0.000,0.000,0.000,0,-0.001,0.011,784,1022,1263,952,2.655,9.339
779,0.000,-6.669,16.732,0.005,2.757,9.394,1.358,-3.351,13.832,-0.005,2.757,9.621,0.717,0.000,0.000,0.000,0.000,0,-0.001,0.010,784,1023,1263,953,2.655,9.339
780,0.000,-6.669,16.732,-0.016,2.779,9.413,1.419,-3.351,13.832,-0.016,2.743,9.645,0.717,0.000,0.000,0.000,0.000,0,-0.001,0.011,784,1023,1263,953,2.655,9.339
781,0.000,-6.669,16.732,-0.005,2.738,9.411,1.328,-3.351,13.832,0.000,2.733,9.633,0.778,0.000,0.000,0.000,0.000,0,-0.001,0.011,783,1023,1263,952,2.655,9.339
782,0.000,-6.669,16.732,-0.005,2.743,9.401,1.114,-3.351,13.832,-0.005,2.697,9.607,0.717,0.000,0.000,0.000,0.000,0,-0.001,0.011,787,1022,1261,953,2.747,9.339
783,0.000,-6.647,16.732,0.000,2.745,9.394,1.175,-3.373,13.832,-0.016,2.719,9.626,0.687,0.000,0.000,0.000,0.000,0,-0.001,0.011,784,1020,1266,953,2.747,9.339
784,0.000,-6.647,16.732,0.005,2.745,9.401,1.266,-3.373,13.832,0.005,2.728,9.633,0.748,0.000,0.000,0.000,0.000,0,-0.001,0.011,784,1022,1265,953,2.655,9.339
785,0.000,-6.647,16.732,0.005,2.769,9.411,1.328,-3.373,13.832,0.000,2.752,9.614,0.626,0.000,0.000,0.000,0.000,0,-0.001,0.011,784,1023,1263,952,2.655,9.339
786,0.000,-6.647,16.732,0.000,2.774,9.394,1.205,-3.373,13.832,0.000,2.750,9.657,0.443,0.000,0.000,0.000,0.000,0,-0.001,0.011,784,1023,1259,953,2.655,9.339
787,0.000,-6.647,16.732,-0.005,2.764,9.408,1.236,-3.373,13.832,0.000,2.711,9.664,0.443,0.000,0.000,0.000,0.000,0,-0.001,0.011,784,1022,1266,952,2.655,9.339
788,0.000,-6.647,16.732,0.000,2.764,9.401,1.175,-3.373,13.832,0.000,2.738,9.624,0.565,0.000,0.000,0.000,0.000,0,-0.001,0.011,784,1022,1266,953,2.747,9.339
789,0.000,-6.625,16.732,-0.005,2.795,9.344,1.297,-3.373,13.832,0.000,2.700,9.633,0.534,0.000,0.000,0.000,0.000,0,-0.001,0.011,784,1022,1267,951,2.747,9.339
790,0.000,-6.625,16.732,-0.005,2.807,9.358,1.175,-3.395,13.832,0.000,2.704,9.628,0.656,0.000,0.000,0.000,0.000,0,-0.001,0.012,784,1021,1262,951,2.747,9.339
791,0.000,-6.625,16.732,-0.016,2.819,9.427,0.931,-3.395,13.832,0.000,2.743,9.631,0.595,0.000,0.000,0.000,0.000,0,-0.001,0.011,784,1022,1263,950,2.747,9.339
792,0.000,-6.603,16.732,0.000,2.800,9.454,1.022,-3.395,13.832,0.000,2.704,9.648,0.504,0.000,0.000,0.000,0.000,0,-0.001,0.011,784,1022,1264,952,2.747,9.339
793,0.000,-6.603,16.732,0.000,2.781,9.432,1.144,-3.395,13.832,0.000,2.695,9.607,0.534,0.000,0.000,0.000,0.000,0,-0.001,0.011,784,1022,1264,955,2.747,9.339
794,0.000,-6.603,16.732,-0.005,2.745,9.420,1.114,-3.395,13.832,0.005,2.671,9.583,0.534,0.000,0.000,0.000,0.000,0,-0.001,0.011,785,1022,1264,955,2.747,9.339
795,0.000,-6.603,16.732,-0.005,2.752,9.444,1.144,-3.417,13.832,0.000,2.647,9.590,0.412,0.000,0.000,0.000,0.000,0,-0.002,0.010,785,1020,1264,951,2.747,9.430
796,0.000,-6.603,16.732,0.016,2.795,9.439,1.175,-3.417,13.832,-0.016,2.695,9.569,0.443,0.000,0.000,0.000,0.000,0,-0.002,0.010,784,1022,1263,948,2.747,9.430
797,0.000,-6.603,16.732,0.000,2.800,9.446,1.175,-3.417,13.832,0.005,2.767,9.566,0.565,0.000,0.000,0.000,0.000,0,-0.001,0.010,785,1022,1263,955,2.655,9.339
798,0.000,-6.581,16.732,-0.005,2.812,9.451,1.358,-3.417,13.832,0.016,2.731,9.576,0.412,0.000,0.000,0.000,0.000,0,-0.001,0.009,785,1022,1264,953,2.747,9.430
799,0.000,-6.581,16.732,0.005,2.795,9.394,1.205,-3.417,13.832,0.000,2.664,9.619,0.320,0.000,0.000,0.000,0.000,0,-0.001,0.009,784,1022,1264,951,2.747,9.430
800,0.000,-6.581,16.732,-0.005,2.807,9.408,1.114,-3.417,13.832,-0.005,2.678,9.604,0.351,0.000,0.000,0.000,0.000,0,-0.001,0.009,785,1018,1264,950,2.747,9.430
801,0.000,-6.581,16.732,0.000,2.819,9.458,1.083,-3.439,13.832,0.000,2.697,9.554,0.504,0.000,0.000,0.000,0.000,0,-0.003,0.010,785,1022,1264,952,2.747,9.430
802,0.000,-6.559,16.732,0.000,2.764,9.432,1.175,-3.439,13.832,-0.005,2.707,9.547,0.565,0.000,0.000,0.000,0.000,0,-0.001,0.009,784,1022,1263,952,2.747,9.339
803,0.000,-6.559,16.732,0.027,2.819,9.425,1.083,-3.439,13.832,0.000,2.692,9.571,0.351,0.000,0.000,0.000,0.000,0,-0.000,0.008,785,1022,1264,951,2.747,9.339
804,0.000,-6.559,16.732,0.000,2.838,9.408,0.931,-3.439,13.832,0.000,2.719,9.566,0.351,0.000,0.000,0.000,0.000,0,-0.003,0.008,785,1022,1264,951,2.747,9.430
805,0.000,-6.559,16.732,0.000,2.769,9.389,0.961,-3.439,13.832,0.005,2.757,9.537,0.320,0.000,0.000,0.000,0.000,0,-0.004,0.008,785,1022,1264,951,2.747,9.430
806,0.000,-6.537,16.732,-0.016,2.779,9.396,0.961,-3.439,13.832,0.005,2.731,9.564,0.320,0.000,0.000,0.000,0.000,0,-0.004,0.009,785,1022,1264,951,2.747,9.339
807,0.000,-6.537,16.732,0.000,2.769,9.411,0.900,-3.439,13.832,0.000,2.733,9.564,0.443,0.000,0.000,0.000,0.000,0,-0.001,0.009,784,1022,1264,950,2.838,9.339
808,0.000,-6.537,16.732,0.000,2.752,9.423,0.900,-3.417,13.832,0.016,2.750,9.552,0.443,0.000,0.000,0.000,0.000,0,-0.001,0.009,785,1022,1265,950,2.747,9.339
809,0.000,-6.537,16.732,0.000,2.738,9.411,0.900,-3.417,13.832,0.005,2.788,9.530,0.504,0.000,0.000,0.000,0.000,0,-0.001,0.009,784,1022,1265,950,2.747,9.339
810,0.000,-6.537,16.732,-0.005,2.714,9.437,0.931,-3.417,13.832,0.016,2.762,9.482,0.443,0.000,0.000,0.000,0.000,0,-0.002,0.009,784,1022,1265,950,2.747,9.339
811,0.000,-6.559,16.732,0.000,2.735,9.473,0.900,-3.417,13.832,-0.005,2.707,9.509,0.412,0.000,0.000,0.000,0.000,0,-0.002,0.010,785,1021,1264,950,2.747,9.339
812,0.000,-6.559,16.732,0.000,2.745,9.432,0.839,-3.417,13.832,0.000,2.764,9.528,0.504,0.000,0.000,0.000,0.000,0,-0.001,0.010,785,1022,1264,950,2.655,9.339
813,0.000,-6.559,16.732,0.005,2.711,9.425,0.809,-3.395,13.832,0.000,2.788,9.514,0.473,0.000,0.000,0.000,0.000,0,-0.001,0.011,785,1021,1264,950,2.655,9.430
814,0.000,-6.559,16.732,0.005,2.767,9.468,0.870,-3.395,13.832,-0.005,2.755,9.521,0.381,0.000,0.000,0.000,0.000,0,-0.002,0.013,785,1021,1264,949,2.655,9.430
815,0.000,-6.559,16.732,0.000,2.807,9.473,0.900,-3.395,13.832,0.000,2.731,9.509,0.412,0.000,0.000,0.000,0.000,0,-0.001,0.015,785,1021,1264,950,2.655,9.430
816,0.000,-6.559,16.732,0.000,2.762,9.473,0.931,-3.395,13.832,0.000,2.771,9.485,0.290,0.000,0.000,0.000,0.000,0,-0.001,0.017,786,1021,1263,950,2.655,9.339
817,0.000,-6.559,16.732,-0.005,2.755,9.466,0.809,-3.373,13.832,0.000,2.769,9.504,0.290,0.000,0.000,0.000,0.000,0,-0.001,0.018,785,1019,1264,949,2.747,9.430
818,0.000,-6.559,16.732,-0.005,2.723,9.468,0.717,-3.373,13.832,0.005,2.764,9.540,0.381,0.000,0.000,0.000,0.000,0,-0.001,0.016,784,1021,1264,949,2.747,9.430
819,0.000,-6.559,16.732,0.000,2.709,9.482,0.748,-3.373,13.832,0.000,2.805,9.530,0.320,0.000,0.000,0.000,0.000,0,-0.001,0.017,785,1021,1265,949,2.747,9.430
820,0.000,-6.559,16.732,0.000,2.764,9.497,0.717,-3.351,13.832,-0.005,2.848,9.485,0.259,0.000,0.000,0.000,0.000,0,-0.001,0.016,785,1022,1263,949,2.747,9.430
821,0.000,-6.559,16.732,-0.005,2.745,9.466,0.870,-3.351,13.832,-0.005,2.802,9.458,0.259,0.000,0.000,0.000,0.000,0,-0.001,0.016,785,1021,1263,949,2.655,9.430
822,0.000,-6.559,16.732,-0.016,2.752,9.468,0.900,-3.329,13.832,0.005,2.740,9.497,0.259,0.000,0.000,0.000,0.000,0,-0.001,0.016,784,1019,1267,948,2.655,9.430
823,0.000,-6.559,16.732,-0.005,2.788,9.506,0.870,-3.329,13.832,0.000,2.774,9.530,0.351,0.000,0.000,0.000,0.000,0,-0.001,0.015,786,1021,1266,948,2.747,9.430
824,0.000,-6.559,16.732,0.000,2.728,9.514,0.778,-3.329,13.832,0.000,2.783,9.504,0.290,0.000,0.000,0.000,0.000,0,-0.001,0.015,785,1021,1262,948,2.655,9.430
825,0.000,-6.559,16.732,0.005,2.726,9.511,0.717,-3.329,13.832,0.000,2.793,9.530,0.320,0.000,0.000,0.000,0.000,0,-0.001,0.015,785,1021,1260,948,2.747,9.430
826,0.000,-6.581,16.732,-0.016,2.745,9.530,0.809,-3.307,13.832,0.005,2.814,9.523,0.320,0.000,0.000,0.000,0.000,0,-0.001,0.014,785,1021,1264,948,2.747,9.430
827,0.000,-6.581,16.732,-0.005,2.716,9.494,0.961,-3.307,13.832,0.000,2.793,9.494,0.412,0.000,0.000,0.000,0.000,0,-0.001,0.014,785,1021,1268,947,2.655,9.430
828,0.000,-6.581,16.732,0.005,2.716,9.468,0.870,-3.307,13.832,0.000,2.776,9.509,0.381,0.000,0.000,0.000,0.000,0,-0.001,0.014,786,1021,1265,948,2.655,9.430
829,0.000,-6.581,16.732,0.000,2.697,9.480,0.839,-3.307,13.832,0.000,2.810,9.533,0.351,0.000,0.000,0.000,0.000,0,-0.001,0.014,785,1021,1263,947,2.655,9.522
830,0.000,-6.603,16.732,-0.005,2.716,9.475,0.870,-3.285,13.832,-0.005,2.819,9.559,0.259,0.000,0.000,0.000,0.000,0,-0.001,0.013,786,1021,1265,946,2.655,9.430
831,0.000,-6.603,16.732,0.000,2.726,9.470,0.870,-3.285,13.832,0.000,2.846,9.549,0.473,0.000,0.000,0.000,0.000,0,-0.002,0.012,785,1021,1265,946,2.655,9.430
832,0.000,-6.603,16.732,0.005,2.707,9.470,0.931,-3.263,13.832,-0.005,2.829,9.542,0.351,0.000,0.000,0.000,0.000,0,-0.002,0.012,785,1021,1265,951,2.655,9.430
833,0.000,-6.603,16.732,0.005,2.723,9.502,0.870,-3.263,13.832,0.000,2.800,9.540,0.381,0.000,0.000,0.000,0.000,0,-0.002,0.011,785,1021,1264,945,2.655,9.430
834,0.000,-6.603,16.732,0.000,2.711,9.470,0.778,-3.263,13.832,0.000,2.814,9.566,0.443,0.000,0.000,0.000,0.000,0,-0.002,0.011,785,1021,1264,943,2.655,9.430
835,0.000,-6.625,16.732,-0.005,2.707,9.434,0.656,-3.241,13.832,0.005,2.817,9.559,0.534,0.000,0.000,0.000,0.000,0,-0.002,0.012,785,1021,1264,944,2.655,9.430
836,0.000,-6.625,16.732,-0.005,2.690,9.418,0.687,-3.241,13.832,0.016,2.800,9.559,0.626,0.000,0.000,0.000,0.000,0,-0.002,0.011,785,1021,1264,949,2.655,9.430
837,0.000,-6.625,16.732,0.000,2.656,9.432,0.778,-3.241,13.832,0.000,2.781,9.576,0.565,0.000,0.000,0.000,0.000,0,-0.002,0.011,786,1021,1265,949,2.655,9.430
838,0.000,-6.625,16.732,-0.005,2.649,9.430,0.565,-3.241,13.832,0.000,2.759,9.547,0.473,0.000,0.000,0.000,0.000,0,-0.002,0.014,784,1021,1264,946,2.655,9.430
839,0.000,-6.647,16.732,-0.005,2.733,9.456,0.687,-3.241,13.832,0.000,2.767,9.549,0.381,0.000,0.000,0.000,0.000,0,-0.002,0.017,786,1023,1265,945,2.655,9.339
840,0.000,-6.647,16.732,0.005,2.762,9.466,0.809,-3.241,13.832,0.000,2.788,9.576,0.443,0.000,0.000,0.000,0.000,0,-0.003,0.022,786,1021,1264,947,2.655,9.430
841,0.000,-6.647,16.732,-0.005,2.779,9.458,0.717,-3.241,13.832,0.000,2.817,9.552,0.656,0.000,0.000,0.000,0.000,0,-0.001,0.022,785,1020,1265,946,2.564,9.430
842,0.000,-6.647,16.732,0.000,2.704,9.494,0.687,-3.219,13.832,0.000,2.788,9.573,0.687,0.000,0.000,0.000,0.000,0,-0.001,0.023,786,1021,1264,946,2.655,9.430
843,0.000,-6.647,16.732,0.000,2.728,9.509,0.717,-3.219,13.832,0.000,2.757,9.581,0.687,0.000,0.000,0.000,0.000,0,-0.002,0.024,786,1021,1265,946,2.747,9.430
844,0.000,-6.647,16.732,0.000,2.726,9.473,0.687,-3.219,13.854,-0.005,2.764,9.523,0.717,0.000,0.000,0.000,0.000,0,-0.003,0.024,786,1021,1264,946,2.747,9.430
845,0.000,-6.647,16.732,-0.005,2.704,9.449,0.748,-3.219,13.854,0.000,2.764,9.523,0.626,0.000,0.000,0.000,0.000,0,-0.002,0.025,786,1020,1265,946,2.655,9.430
846,0.000,-6.647,16.732,-0.005,2.750,9.451,0.839,-3.219,13.854,-0.005,2.759,9.530,0.534,0.000,0.000,0.000,0.000,0,-0.001,0.025,786,1020,1264,945,2.655,9.430
847,0.000,-6.647,16.732,0.000,2.781,9.434,0.809,-3.219,13.854,0.000,2.781,9.552,0.504,0.000,0.000,0.000,0.000,0,-0.001,0.026,786,1021,1264,946,2.655,9.430
848,0.000,-6.647,16.732,0.005,2.759,9.427,0.900,-3.219,13.854,-0.005,2.771,9.600,0.534,0.000,0.000,0.000,0.000,0,-0.002,0.026,785,1021,1264,945,2.655,9.430
849,0.000,-6.647,16.732,0.000,2.755,9.432,0.870,-3.219,13.854,0.000,2.745,9.581,0.412,0.000,0.000,0.000,0.000,0,-0.002,0.027,786,1020,1265,945,2.747,9.430
850,0.000,-6.647,16.732,-0.005,2.759,9.456,0.717,-3.219,13.854,0.000,2.757,9.552,0.565,0.000,0.000,0.000,0.000,0,-0.002,0.027,788,1020,1265,946,2.747,9.430
851,0.000,-6.647,16.732,0.000,2.707,9.454,0.839,-3.219,13.854,-0.005,2.774,9.585,0.717,0.000,0.000,0.000,0.000,0,-0.001,0.027,786,1021,1264,945,2.747,9.339
852,0.000,-6.647,16.732,-0.005,2.709,9.434,0.870,-3.219,13.854,0.000,2.781,9.604,0.626,0.000,0.000,0.000,0.000,0,-0.001,0.026,786,1020,1264,945,2.747,9.430
853,0.000,-6.647,16.732,-0.016,2.769,9.442,0.839,-3.219,13.854,-0.005,2.781,9.595,0.595,0.000,0.000,0.000,0.000,0,-0.002,0.026,786,1020,1264,945,2.747,9.430
854,0.000,-6.647,16.732,-0.005,2.767,9.439,0.900,-3.219,13.854,0.005,2.788,9.614,0.626,0.000,0.000,0.000,0.000,0,-0.001,0.026,786,1020,1265,945,2.655,9.430
855,0.000,-6.647,16.732,-0.005,2.728,9.461,0.870,-3.219,13.854,0.000,2.771,9.612,0.565,0.000,0.000,0.000,0.000,0,-0.002,0.026,789,1020,1264,944,2.655,9.430
856,0.000,-6.647,16.732,0.005,2.721,9.446,0.778,-3.219,13.854,0.005,2.750,9.583,0.595,0.000,0.000,0.000,0.000,0,-0.002,0.025,786,1020,1264,945,2.747,9.430
857,0.000,-6.647,16.732,0.000,2.779,9.389,0.900,-3.219,13.854,-0.005,2.726,9.585,0.565,0.000,0.000,0.000,0.000,0,-0.002,0.024,786,1020,1264,944,2.747,9.430
858,0.000,-6.625,16.732,0.005,2.814,9.427,0.961,-3.219,13.854,-0.005,2.743,9.616,0.656,0.000,0.000,0.000,0.000,0,-0.002,0.024,787,1020,1264,944,2.655,9.430
859,0.000,-6.625,16.732,0.000,2.779,9.432,0.931,-3.219,13.854,-0.005,2.745,9.602,0.656,0.000,0.000,0.000,0.000,0,-0.001,0.023,786,1020,1263,945,2.655,9.430
860,0.000,-6.625,16.732,0.000,2.769,9.382,0.839,-3.241,13.854,0.005,2.723,9.569,0.504,0.000,0.000,0.000,0.000,0,-0.001,0.023,787,1021,1263,944,2.747,9.339
861,0.000,-6.625,16.732,0.000,2.788,9.406,0.839,-3.241,13.854,0.005,2.719,9.559,0.565,0.000,0.000,0.000,0.000,0,-0.001,0.024,786,1020,1264,944,2.747,9.339
862,0.000,-6.603,16.732,0.000,2.752,9.442,0.809,-3.241,13.854,0.000,2.743,9.557,0.473,0.000,0.000,0.000,0.000,0,-0.001,0.024,786,1020,1264,943,2.747,9.430
863,0.000,-6.625,16.732,-0.005,2.709,9.439,0.717,-3.241,13.854,0.000,2.738,9.504,0.351,0.000,0.000,0.000,0.000,0,-0.001,0.025,786,1020,1260,945,2.747,9.339
864,0.000,-6.625,16.732,0.005,2.733,9.446,0.778,-3.241,13.854,0.016,2.714,9.490,0.351,0.000,0.000,0.000,0.000,0,-0.001,0.027,786,1020,1260,944,2.747,9.339
865,0.000,-6.625,16.732,0.005,2.764,9.473,0.839,-3.241,13.854,0.000,2.755,9.523,0.412,0.000,0.000,0.000,0.000,0,-0.001,0.028,785,1020,1265,944,2.747,9.430
866,0.000,-6.625,16.732,0.005,2.771,9.478,0.687,-3.241,13.854,0.016,2.747,9.497,0.473,0.000,0.000,0.000,0.000,0,-0.001,0.029,786,1020,1267,943,2.655,9.430
867,0.000,-6.603,16.732,0.000,2.783,9.458,0.687,-3.241,13.854,0.005,2.716,9.485,0.473,0.000,0.000,0.000,0.000,0,-0.001,0.029,786,1020,1262,944,2.655,9.430
868,0.000,-6.603,16.732,0.000,2.810,9.454,0.809,-3.241,13.854,-0.005,2.709,9.511,0.381,0.000,0.000,0.000,0.000,0,-0.000,0.028,786,1020,1262,943,2.747,9.430
869,0.000,-6.603,16.732,0.000,2.817,9.449,0.931,-3.241,13.854,0.016,2.690,9.537,0.381,0.000,0.000,0.000,0.000,0,-0.000,0.027,786,1020,1264,942,2.747,9.430
870,0.000,-6.603,16.732,0.005,2.771,9.425,0.931,-3.263,13.854,0.000,2.709,9.530,0.290,0.000,0.000,0.000,0.000,0,-0.000,0.026,786,1020,1264,945,2.747,9.430
871,0.000,-6.581,16.732,0.000,2.788,9.434,0.687,-3.263,13.854,0.000,2.750,9.497,0.320,0.000,0.000,0.000,0.000,0,-0.001,0.025,786,1020,1264,947,2.747,9.430
872,0.000,-6.581,16.732,0.016,2.814,9.470,0.687,-3.263,13.854,-0.005,2.726,9.444,0.412,0.000,0.000,0.000,0.000,0,-0.001,0.025,784,1020,1264,943,2.747,9.430
873,0.000,-6.581,16.732,0.000,2.814,9.504,0.717,-3.263,13.854,0.000,2.680,9.403,0.290,0.000,0.000,0.000,0.000,0,-0.000,0.024,786,1023,1264,938,2.747,9.339
874,0.000,-6.581,16.732,0.016,2.848,9.478,0.717,-3.263,13.854,-0.005,2.666,9.425,0.351,0.000,0.000,0.000,0.000,0,-0.001,0.025,786,1020,1264,943,2.747,9.430
875,0.000,-6.559,16.732,0.016,2.848,9.449,0.809,-3.263,13.854,-0.005,2.685,9.475,0.351,0.000,0.000,0.000,0.000,0,-0.001,0.023,786,1020,1264,946,2.747,9.430
876,0.000,-6.559,16.732,0.000,2.841,9.475,0.748,-3.263,13.854,0.016,2.676,9.423,0.443,0.000,0.000,0.000,0.000,0,-0.001,0.022,786,1020,1265,943,2.747,9.430
877,0.000,-6.537,16.732,-0.005,2.867,9.502,0.778,-3.263,13.854,-0.005,2.630,9.406,0.381,0.000,0.000,0.000,0.000,0,-0.000,0.021,785,1020,1264,941,2.838,9.430
878,0.000,-6.537,16.732,0.000,2.860,9.485,0.687,-3.285,13.854,-0.005,2.652,9.418,0.320,0.000,0.000,0.000,0.000,0,-0.001,0.020,786,1023,1265,942,2.838,9.430
879,0.000,-6.515,16.732,0.000,2.910,9.492,0.717,-3.285,13.854,0.000,2.668,9.399,0.168,0.000,0.000,0.000,0.000,0,-0.001,0.020,786,1020,1264,943,2.838,9.430
880,0.000,-6.515,16.732,0.000,2.860,9.516,0.473,-3.285,13.854,0.005,2.666,9.396,0.198,0.000,0.000,0.000,0.000,0,-0.000,0.019,786,1020,1264,943,2.838,9.430
881,0.000,-6.515,16.732,0.000,2.881,9.545,0.443,-3.285,13.854,0.000,2.630,9.413,0.229,0.000,0.000,0.000,0.000,0,0.000,0.019,786,1020,1265,942,2.838,9.430
882,0.000,-6.493,16.732,0.000,2.881,9.506,0.626,-3.307,13.854,-0.005,2.620,9.389,0.229,0.000,0.000,0.000,0.000,0,-0.000,0.020,787,1020,1265,943,2.838,9.430
883,0.000,-6.493,16.732,0.005,2.841,9.509,0.717,-3.307,13.854,0.000,2.623,9.367,0.229,0.000,0.000,0.000,0.000,0,-0.003,0.021,786,1020,1265,942,2.838,9.430
884,0.000,-6.493,16.732,0.000,2.838,9.542,0.717,-3.307,13.854,-0.005,2.637,9.399,0.198,0.000,0.000,0.000,0.000,0,-0.001,0.021,786,1020,1265,942,2.838,9.522
885,0.000,-6.471,16.732,0.000,2.829,9.509,0.687,-3.329,13.854,-0.005,2.649,9.408,0.259,0.000,0.000,0.000,0.000,0,-0.000,0.021,786,1020,1264,942,2.838,9.430
886,0.000,-6.471,16.732,0.000,2.834,9.502,0.534,-3.329,13.854,-0.005,2.642,9.379,0.168,0.000,0.000,0.000,0.000,0,-0.001,0.022,786,1020,1265,942,2.838,9.430
887,0.000,-6.471,16.732,0.000,2.848,9.514,0.534,-3.329,13.854,0.000,2.599,9.365,0.137,0.000,0.000,0.000,0.000,0,-0.002,0.022,786,1020,1265,942,2.838,9.522
888,0.000,-6.471,16.732,0.016,2.848,9.475,0.534,-3.351,13.854,0.000,2.575,9.353,0.137,0.000,0.000,0.000,0.000,0,-0.001,0.023,786,1020,1265,942,2.747,9.430
889,0.000,-6.449,16.732,-0.005,2.903,9.470,0.595,-3.351,13.854,-0.005,2.625,9.341,0.076,0.000,0.000,0.000,0.000,0,-0.001,0.024,786,1020,1265,942,2.747,9.430
890,0.000,-6.449,16.732,0.000,2.917,9.504,0.626,-3.351,13.854,-0.005,2.618,9.355,0.000,0.000,0.000,0.000,0.000,0,-0.001,0.025,787,1018,1264,942,2.838,9.430
891,0.000,-6.427,16.732,0.000,2.867,9.528,0.504,-3.351,13.854,0.005,2.597,9.327,0.000,0.000,0.000,0.000,0.000,0,-0.001,0.025,786,1020,1265,942,2.838,9.430
892,0.000,-6.427,16.732,0.000,2.829,9.487,0.443,-3.373,13.854,-0.005,2.601,9.341,0.000,0.000,0.000,0.000,0.000,0,-0.001,0.026,786,1020,1265,942,2.838,9.430
893,0.000,-6.427,16.732,0.000,2.874,9.478,0.412,-3.373,13.854,-0.005,2.644,9.382,-0.046,0.000,0.000,0.000,0.000,0,-0.001,0.025,786,1020,1266,942,2.838,9.430
894,0.000,-6.405,16.732,0.000,2.879,9.470,0.320,-3.373,13.854,0.000,2.716,9.363,-0.259,0.000,0.000,0.000,0.000,0,-0.001,0.026,785,1020,1264,942,2.838,9.522
895,0.000,-6.405,16.732,0.005,2.831,9.468,0.320,-3.373,13.854,0.005,2.668,9.344,-0.290,0.000,0.000,0.000,0.000,0,-0.001,0.026,786,1016,1264,942,2.747,9.430
896,0.000,-6.383,16.732,0.005,2.860,9.463,0.320,-3.373,13.854,0.005,2.640,9.341,-0.198,0.000,0.000,0.000,0.000,0,-0.001,0.024,786,1020,1266,941,2.838,9.430
897,0.000,-6.383,16.732,0.000,2.913,9.461,0.381,-3.373,13.854,0.000,2.683,9.332,-0.198,0.000,0.000,0.000,0.000,0,-0.001,0.025,786,1020,1263,941,2.838,9.430
898,0.000,-6.361,16.732,-0.016,2.920,9.494,0.259,-3.373,13.854,0.000,2.685,9.322,-0.198,0.000,0.000,0.000,0.000,0,-0.001,0.026,787,1020,1264,941,2.747,9.430
899,0.000,-6.361,16.732,0.000,2.901,9.466,0.076,-3.351,13.854,0.000,2.683,9.336,-0.320,0.000,0.000,0.000,0.000,0,-0.001,0.027,786,1020,1264,941,2.838,9.430
900,0.000,-6.339,16.732,-0.016,2.877,9.451,0.000,-3.351,13.854,0.000,2.647,9.329,-0.443,0.000,0.000,0.000,0.000,0,-0.001,0.028,786,1018,1269,940,2.838,9.430
901,0.000,-6.339,16.732,0.000,2.841,9.480,0.076,-3.373,13.854,0.005,2.640,9.329,-0.412,0.000,0.000,0.000,0.000,0,-0.001,0.028,786,1020,1267,940,2.838,9.430
902,0.000,-6.339,16.732,0.027,2.886,9.478,0.168,-3.373,13.854,0.000,2.680,9.327,-0.412,0.000,0.000,0.000,0.000,0,-0.001,0.030,786,1020,1261,942,2.838,9.430
903,0.000,-6.317,16.732,0.005,2.874,9.456,0.046,-3.351,13.854,-0.005,2.711,9.327,-0.504,0.000,0.000,0.000,0.000,0,-0.001,0.029,787,1020,1261,941,2.838,9.430
904,0.000,-6.317,16.732,-0.005,2.831,9.446,0.000,-3.351,13.854,0.000,2.747,9.346,-0.534,0.000,0.000,0.000,0.000,0,-0.001,0.028,787,1020,1269,941,2.838,9.430
905,0.000,-6.317,16.732,0.000,2.826,9.425,-0.168,-3.351,13.854,0.005,2.733,9.377,-0.565,0.000,0.000,0.000,0.000,0,-0.001,0.028,787,1020,1266,941,2.838,9.430
906,0.000,-6.317,16.732,0.005,2.853,9.387,-0.198,-3.329,13.854,0.000,2.728,9.353,-0.381,0.000,0.000,0.000,0.000,0,-0.001,0.028,787,1020,1264,941,2.838,9.430
907,0.000,-6.295,16.732,0.000,2.848,9.403,-0.229,-3.329,13.854,0.005,2.750,9.308,-0.443,0.000,0.000,0.000,0.000,0,-0.001,0.028,787,1021,1264,941,2.747,9.430
908,0.000,-6.295,16.732,0.000,2.829,9.439,-0.290,-3.307,13.854,0.005,2.752,9.341,-0.504,0.000,0.000,0.000,0.000,0,-0.001,0.028,786,1020,1266,940,2.747,9.339
909,0.000,-6.295,16.732,-0.005,2.831,9.434,-0.259,-3.307,13.854,0.000,2.802,9.379,-0.504,0.000,0.000,0.000,0.000,0,-0.001,0.028,787,1020,1266,940,2.838,9.339
910,0.000,-6.295,16.732,-0.027,2.831,9.418,-0.504,-3.285,13.854,0.000,2.800,9.355,-0.626,0.000,0.000,0.000,0.000,0,-0.001,0.027,787,1020,1266,943,2.838,9.339
911,0.000,-6.273,16.732,-0.005,2.855,9.420,-0.565,-3.285,13.854,-0.005,2.810,9.358,-0.565,0.000,0.000,0.000,0.000,0,-0.001,0.027,786,1020,1266,943,2.747,9.430
912,0.000,-6.273,16.732,0.000,2.903,9.415,-0.595,-3.263,13.854,-0.005,2.834,9.413,-0.473,0.000,0.000,0.000,0.000,0,-0.001,0.026,787,1023,1266,937,2.747,9.430
913,0.000,-6.251,16.732,0.000,2.913,9.384,-0.534,-3.263,13.854,-0.005,2.793,9.427,-0.504,0.000,0.000,0.000,0.000,0,-0.001,0.027,787,1020,1265,941,2.747,9.339
914,0.000,-6.251,16.732,0.005,2.843,9.415,-0.473,-3.241,13.854,-0.005,2.850,9.439,-0.534,0.000,0.000,0.000,0.000,0,-0.001,0.024,787,1020,1266,943,2.838,9.339
915,0.000,-6.251,16.732,0.005,2.831,9.449,-0.534,-3.219,13.854,0.005,2.872,9.470,-0.687,0.000,0.000,0.000,0.000,0,-0.001,0.024,787,1020,1266,941,2.838,9.339
916,0.000,-6.229,16.732,0.016,2.822,9.399,-0.717,-3.219,13.854,-0.005,2.860,9.451,-0.656,0.000,0.000,0.000,0.000,0,-0.001,0.024,784,1020,1266,940,2.838,9.339
917,0.000,-6.229,16.732,-0.005,2.790,9.363,-0.809,-3.197,13.854,0.000,2.901,9.485,-0.656,0.000,0.000,0.000,0.000,0,-0.002,0.024,787,1023,1266,940,2.838,9.339
918,0.000,-6.229,16.732,-0.005,2.779,9.391,-0.809,-3.175,13.854,-0.005,2.896,9.466,-0.778,0.000,0.000,0.000,0.000,0,-0.002,0.027,787,1020,1266,941,2.747,9.430
919,0.000,-6.229,16.732,0.000,2.805,9.463,-0.839,-3.153,13.854,0.005,2.881,9.454,-0.687,0.000,0.000,0.000,0.000,0,-0.000,0.028,787,1020,1266,940,2.747,9.339
920,0.000,-6.229,16.732,0.000,2.790,9.432,-0.900,-3.153,13.854,0.000,2.886,9.497,-0.595,0.000,0.000,0.000,0.000,0,-0.000,0.028,787,1020,1266,940,2.747,9.339
921,0.000,-6.229,16.732,0.000,2.807,9.372,-0.931,-3.131,13.854,0.000,2.944,9.509,-0.656,0.000,0.000,0.000,0.000,0,-0.001,0.028,788,1020,1267,941,2.747,9.339
922,0.000,-6.229,16.732,0.000,2.814,9.387,-1.022,-3.109,13.854,0.000,2.960,9.530,-0.626,0.000,0.000,0.000,0.000,0,-0.003,0.027,787,1020,1266,941,2.747,9.430
923,0.000,-6.229,16.732,0.000,2.769,9.365,-1.144,-3.087,13.854,-0.005,2.958,9.576,-0.443,0.000,0.000,0.000,0.000,0,-0.001,0.027,787,1020,1266,941,2.747,9.430
924,0.000,-6.229,16.732,0.000,2.836,9.360,-1.114,-3.065,13.854,0.000,2.999,9.569,-0.595,0.000,0.000,0.000,0.000,0,-0.002,0.027,787,1020,1266,941,2.747,9.339
925,0.000,-6.207,16.732,0.000,2.858,9.382,-1.022,-3.043,13.854,0.005,2.980,9.559,-0.626,0.000,0.000,0.000,0.000,0,-0.001,0.028,788,1020,1266,941,2.747,9.339
926,0.000,-6.207,16.732,-0.005,2.824,9.394,-0.992,-3.021,13.854,-0.016,2.989,9.569,-0.595,0.000,0.000,0.000,0.000,0,-0.002,0.029,788,1020,1266,941,2.747,9.339
927,0.000,-6.207,16.732,0.000,2.831,9.411,-1.114,-2.999,13.854,-0.005,3.042,9.597,-0.626,0.000,0.000,0.000,0.000,0,-0.002,0.029,788,1020,1267,941,2.747,9.339
928,0.000,-6.207,16.732,0.000,2.843,9.401,-1.266,-2.977,13.854,0.005,3.071,9.607,-0.473,0.000,0.000,0.000,0.000,0,-0.001,0.030,789,1020,1267,941,2.838,9.339
929,0.000,-6.185,16.732,-0.005,2.867,9.387,-1.205,-2.933,13.854,-0.005,3.095,9.585,-0.351,0.000,0.000,0.000,0.000,0,-0.001,0.029,788,1021,1266,941,2.747,9.339
930,0.000,-6.185,16.732,0.005,2.848,9.391,-1.205,-2.911,13.854,-0.005,3.099,9.626,-0.198,0.000,0.000,0.000,0.000,0,-0.001,0.028,788,1020,1266,941,2.747,9.339
931,0.000,-6.185,16.732,0.000,2.807,9.382,-1.144,-2.889,13.854,0.000,3.102,9.664,-0.198,0.000,0.000,0.000,0.000,0,-0.001,0.028,788,1021,1266,941,2.838,9.339
932,0.000,-6.185,16.732,0.000,2.802,9.375,-1.236,-2.867,13.854,-0.016,3.128,9.633,-0.137,0.000,0.000,0.000,0.000,0,-0.001,0.027,789,1020,1266,941,2.838,9.339
933,0.000,-6.185,16.732,0.000,2.855,9.370,-1.236,-2.824,13.854,-0.005,3.130,9.607,0.000,0.000,0.000,0.000,0.000,0,-0.001,0.026,784,1020,1266,941,2.838,9.339
934,0.000,-6.163,16.732,-0.005,2.898,9.391,-1.175,-2.802,13.854,0.005,3.123,9.595,0.076,0.000,0.000,0.000,0.000,0,-0.001,0.026,789,1016,1266,940,2.747,9.339
935,0.000,-6.163,16.732,0.005,2.836,9.425,-1.114,-2.780,13.854,0.005,3.109,9.581,0.076,0.000,0.000,0.000,0.000,0,-0.001,0.024,788,1021,1266,941,2.747,9.339
936,0.000,-6.163,16.732,-0.005,2.877,9.420,-1.083,-2.736,13.854,-0.005,3.116,9.595,0.137,0.000,0.000,0.000,0.000,0,-0.001,0.025,788,1020,1267,941,2.838,9.339
937,0.000,-6.141,16.732,-0.016,2.951,9.413,-1.053,-2.714,13.854,0.000,3.099,9.609,0.351,0.000,0.000,0.000,0.000,0,-0.001,0.026,789,1020,1265,940,2.838,9.339
938,0.000,-6.119,16.732,0.000,2.877,9.408,-0.839,-2.692,13.854,0.000,3.042,9.578,0.656,0.000,0.000,0.000,0.000,0,-0.001,0.029,789,1020,1266,941,2.747,9.339
939,0.000,-6.119,16.732,-0.005,2.841,9.411,-0.809,-2.670,13.854,0.016,3.085,9.554,0.870,0.000,0.000,0.000,0.000,0,-0.001,0.033,789,1019,1268,941,2.838,9.339
940,0.000,-6.119,16.732,0.005,2.913,9.423,-0.809,-2.648,13.854,0.016,3.116,9.573,0.778,0.000,0.000,0.000,0.000,0,-0.001,0.036,789,1020,1264,940,2.930,9.339
941,0.000,-6.098,16.732,0.005,2.956,9.411,-0.687,-2.626,13.854,-0.005,3.092,9.564,0.839,0.000,0.000,0.000,0.000,0,-0.001,0.037,789,1021,1264,941,2.838,9.339
942,0.000,-6.098,16.732,0.000,2.922,9.430,-0.504,-2.604,13.854,0.000,3.102,9.497,0.992,0.000,0.000,0.000,0.000,0,-0.001,0.036,789,1021,1262,941,2.838,9.339
943,0.000,-6.076,16.732,0.000,2.941,9.449,-0.534,-2.582,13.854,-0.016,3.102,9.454,1.205,0.000,0.000,0.000,0.000,0,-0.001,0.036,789,1020,1266,941,2.838,9.339
944,0.000,-6.076,16.732,0.005,3.006,9.473,-0.443,-2.560,13.854,-0.005,3.061,9.463,1.328,0.000,0.000,0.000,0.000,0,-0.001,0.036,789,1020,1269,940,2.930,9.339
945,0.000,-6.054,16.732,0.000,2.999,9.480,-0.412,-2.538,13.854,-0.005,3.006,9.506,1.389,0.000,0.000,0.000,0.000,0,-0.001,0.036,790,1020,1268,940,2.838,9.430
946,0.000,-6.032,16.732,0.000,2.982,9.458,-0.381,-2.516,13.854,0.000,3.028,9.482,1.541,0.000,0.000,0.000,0.000,0,-0.001,0.036,790,1020,1265,940,2.930,9.430
947,0.000,-6.032,16.732,0.000,2.972,9.470,-0.076,-2.516,13.854,0.000,3.016,9.449,1.816,0.000,0.000,0.000,0.000,0,-0.001,0.038,790,1020,1267,942,2.930,9.430
948,0.000,-6.010,16.732,0.005,2.980,9.518,-0.137,-2.494,13.854,0.000,2.956,9.446,2.090,0.000,0.000,0.000,0.000,0,-0.001,0.037,790,1020,1267,942,2.930,9.430
949,0.000,-5.988,16.732,0.000,3.068,9.535,-0.046,-2.494,13.854,0.005,2.949,9.413,2.213,0.000,0.000,0.000,0.000,0,-0.001,0.038,790,1020,1267,943,2.930,9.430
950,0.000,-5.966,16.732,0.000,3.049,9.547,0.107,-2.472,13.854,-0.005,2.965,9.391,2.396,0.000,0.000,0.000,0.000,0,-0.001,0.037,789,1020,1267,943,2.930,9.430
951,0.000,-5.966,16.732,-0.005,3.051,9.559,0.259,-2.472,13.854,0.005,2.968,9.372,2.518,0.000,0.000,0.000,0.000,0,-0.001,0.037,790,1022,1267,936,2.930,9.430
952,0.000,-5.944,16.732,-0.005,3.056,9.559,0.351,-2.450,13.854,0.000,2.977,9.363,2.548,0.000,0.000,0.000,0.000,0,-0.001,0.038,790,1020,1267,939,3.021,9.522
953,0.000,-5.922,16.732,0.005,3.039,9.542,0.473,-2.450,13.854,-0.005,2.920,9.372,2.640,0.000,0.000,0.000,0.000,0,-0.001,0.035,790,1021,1267,943,3.021,9.522
954,0.000,-5.922,16.732,-0.005,2.831,9.475,0.565,-2.450,13.854,0.000,2.853,9.370,2.823,0.000,0.000,0.000,0.000,0,-0.001,0.034,790,1020,1267,938,3.021,9.522
955,0.000,-5.922,16.732,-0.005,2.831,9.401,0.473,-2.450,13.854,0.000,2.929,9.351,2.914,0.000,0.000,0.000,0.000,0,-0.002,0.034,795,1020,1267,939,3.021,9.522
956,0.000,-5.922,16.732,0.005,3.095,9.454,0.473,-2.428,13.854,-0.005,2.949,9.339,2.823,0.000,0.000,0.000,0.000,0,-0.001,0.034,790,1021,1267,939,3.021,9.522
957,0.000,-5.878,16.732,0.000,3.157,9.487,0.687,-2.428,13.854,-0.005,2.848,9.365,2.976,0.000,0.000,0.000,0.000,0,-0.002,0.036,790,1020,1267,941,2.747,9.430
958,0.000,-5.856,16.732,0.005,3.075,9.494,0.687,-2.428,13.854,-0.016,2.726,9.427,2.945,0.000,0.000,0.000,0.000,0,-0.001,0.034,790,1021,1267,941,2.747,9.339
959,0.000,-5.856,16.732,-0.005,3.001,9.461,0.595,-2.450,13.854,0.000,2.779,9.336,2.823,0.000,0.000,0.000,0.000,0,-0.001,0.034,790,1020,1267,941,3.021,9.430
960,0.000,-5.834,16.732,-0.016,3.080,9.377,0.656,-2.450,13.854,-0.016,2.814,9.355,2.914,0.000,0.000,0.000,0.000,0,-0.001,0.033,791,1020,1267,941,3.113,9.430
