loopCnt,assist_level,thighDeg_RH,incPosDeg_RH,MotorActCurrent_RH,accX_Calib_RH,accY_Calib_RH,gyroZ_Calib_RH,thighDeg_LH,incPosDeg_LH,MotorActCurrent_LH,accX_Calib_LH,accY_Calib_LH,gyroZ_Calib_LH,u_RH,u_LH,Pvector_ref_RH,Pvector_ref_LH,extension_control_mode,emg_R1,emg_L1,fsr_R1,fsr_R2,fsr_L1,fsr_L2,free_var1,free_var2
302,0.000,-4.955,19.435,-0.016,2.539,9.542,-2.213,-2.186,16.227,0.000,2.508,9.717,-1.816,0.000,0.000,0.000,0.000,6,-0.002,0.010,784,1002,1267,940,2.472,9.522
303,0.000,-4.955,19.435,0.005,2.494,9.523,-2.090,-2.186,16.227,0.005,2.558,9.695,-1.877,0.000,0.000,0.000,0.000,6,-0.002,0.010,783,1006,1268,940,2.472,9.522
304,0.000,-4.977,19.435,0.005,2.494,9.540,-1.907,-2.186,16.227,-0.005,2.649,9.655,-1.938,0.000,0.000,0.000,0.000,6,-0.001,0.008,783,1002,1268,940,2.380,9.522
305,0.000,-4.977,19.435,0.005,2.491,9.545,-1.968,-2.164,16.227,0.005,2.568,9.655,-2.029,0.000,0.000,0.000,0.000,6,-0.001,0.009,783,1002,1268,940,2.472,9.522
306,0.000,-4.977,19.435,0.005,2.489,9.494,-2.029,-2.164,16.227,0.000,2.601,9.655,-1.907,0.000,0.000,0.000,0.000,6,-0.001,0.010,783,1002,1267,940,2.472,9.522
307,0.000,-4.977,19.435,-0.005,2.546,9.490,-2.060,-2.164,16.227,-0.005,2.570,9.660,-1.877,0.000,0.000,0.000,0.000,6,-0.002,0.010,788,1002,1267,940,2.472,9.522
308,0.000,-4.977,19.435,-0.005,2.494,9.516,-2.152,-2.164,16.227,0.000,2.534,9.672,-1.907,0.000,0.000,0.000,0.000,6,-0.001,0.010,784,1003,1268,940,2.472,9.522
309,0.000,-4.999,19.435,0.016,2.472,9.530,-2.121,-2.164,16.227,0.000,2.549,9.681,-1.816,0.000,0.000,0.000,0.000,6,-0.001,0.009,784,1002,1266,940,2.472,9.522
310,0.000,-4.999,19.435,-0.005,2.541,9.521,-2.029,-2.142,16.227,0.005,2.613,9.688,-1.907,0.000,0.000,0.000,0.000,6,-0.001,0.010,783,1002,1266,940,2.472,9.430
311,0.000,-4.999,19.435,0.016,2.510,9.542,-2.060,-2.142,16.227,-0.005,2.604,9.707,-1.938,0.000,0.000,0.000,0.000,6,-0.002,0.010,784,1002,1269,939,2.472,9.430
312,0.000,-4.999,19.435,0.000,2.513,9.559,-2.090,-2.142,16.227,-0.005,2.599,9.705,-1.724,0.000,0.000,0.000,0.000,6,-0.001,0.010,784,1002,1269,940,2.472,9.430
313,0.000,-5.021,19.435,0.016,2.491,9.547,-2.090,-2.142,16.227,0.000,2.570,9.667,-1.633,0.000,0.000,0.000,0.000,6,-0.002,0.009,784,1002,1268,939,2.472,9.522
314,0.000,-5.021,19.435,0.000,2.486,9.559,-2.152,-2.120,16.227,0.000,2.541,9.616,-1.907,0.000,0.000,0.000,0.000,6,-0.002,0.010,784,1002,1262,940,2.472,9.522
315,0.000,-5.021,19.435,0.000,2.498,9.581,-2.090,-2.120,16.227,-0.005,2.556,9.643,-1.907,0.000,0.000,0.000,0.000,6,-0.002,0.010,783,1002,1269,940,2.472,9.522
316,0.000,-5.043,19.413,0.000,2.549,9.578,-1.968,-2.120,16.227,0.000,2.520,9.698,-1.877,0.000,0.000,0.000,0.000,6,-0.002,0.010,784,1002,1270,939,2.472,9.522
317,0.000,-5.043,19.413,-0.005,2.546,9.581,-1.907,-2.120,16.227,0.000,2.551,9.667,-1.846,0.000,0.000,0.000,0.000,6,-0.002,0.010,784,1002,1267,940,2.472,9.522
318,0.000,-5.043,19.413,0.005,2.541,9.597,-1.968,-2.120,16.227,0.000,2.620,9.643,-1.755,0.000,0.000,0.000,0.000,6,-0.002,0.010,784,1002,1265,938,2.472,9.522
319,0.000,-5.043,19.413,0.000,2.565,9.571,-2.060,-2.120,16.227,0.016,2.613,9.669,-1.663,0.000,0.000,0.000,0.000,6,-0.002,0.010,782,1002,1267,939,2.472,9.522
320,0.000,-5.043,19.413,0.000,2.510,9.554,-1.999,-2.098,16.227,0.000,2.597,9.664,-1.785,0.000,0.000,0.000,0.000,6,-0.002,0.010,784,1003,1265,938,2.472,9.522
321,0.000,-5.043,19.413,0.005,2.515,9.600,-1.877,-2.098,16.227,0.005,2.609,9.652,-1.816,0.000,0.000,0.000,0.000,6,-0.002,0.010,783,1002,1266,942,2.472,9.522
322,0.000,-5.043,19.413,-0.005,2.527,9.624,-1.785,-2.098,16.227,-0.016,2.568,9.650,-1.755,0.000,0.000,0.000,0.000,6,-0.002,0.010,783,1002,1266,937,2.472,9.522
323,0.000,-5.065,19.413,-0.005,2.525,9.602,-1.755,-2.098,16.227,-0.005,2.568,9.672,-1.633,0.000,0.000,0.000,0.000,6,-0.002,0.010,784,1002,1265,936,2.564,9.522
324,0.000,-5.065,19.413,-0.005,2.503,9.561,-1.694,-2.098,16.227,0.005,2.604,9.688,-1.450,0.000,0.000,0.000,0.000,6,-0.001,0.009,779,1002,1265,936,2.472,9.522
325,0.000,-5.065,19.413,-0.005,2.484,9.564,-1.724,-2.076,16.227,0.000,2.546,9.669,-1.419,0.000,0.000,0.000,0.000,6,-0.002,0.010,784,1000,1265,942,2.472,9.522
326,0.000,-5.065,19.413,0.005,2.556,9.588,-1.724,-2.076,16.227,0.005,2.577,9.667,-1.602,0.000,0.000,0.000,0.000,6,-0.002,0.010,784,1002,1266,943,2.472,9.613
327,0.000,-5.065,19.413,0.000,2.501,9.561,-1.694,-2.076,16.227,0.005,2.620,9.648,-1.724,0.000,0.000,0.000,0.000,6,-0.002,0.010,783,1002,1265,940,2.472,9.522
328,0.000,-5.087,19.413,0.000,2.479,9.557,-1.785,-2.076,16.227,0.005,2.556,9.640,-1.755,0.000,0.000,0.000,0.000,6,-0.002,0.010,784,1002,1265,937,2.472,9.522
329,0.000,-5.087,19.413,0.005,2.515,9.559,-1.694,-2.076,16.227,0.005,2.597,9.657,-1.602,0.000,0.000,0.000,0.000,6,-0.002,0.010,784,1002,1265,940,2.472,9.522
330,0.000,-5.087,19.413,-0.005,2.455,9.523,-1.602,-2.054,16.227,0.000,2.647,9.664,-1.511,0.000,0.000,0.000,0.000,6,-0.002,0.010,784,1002,1264,939,2.472,9.522
331,0.000,-5.109,19.413,0.000,2.474,9.573,-1.694,-2.054,16.227,-0.005,2.630,9.676,-1.450,0.000,0.000,0.000,0.000,6,-0.002,0.010,784,1002,1265,939,2.472,9.522
332,0.000,-5.109,19.413,0.000,2.544,9.566,-1.816,-2.054,16.227,0.005,2.613,9.693,-1.541,0.000,0.000,0.000,0.000,6,-0.001,0.010,784,1002,1265,939,2.472,9.522
333,0.000,-5.109,19.413,0.005,2.525,9.523,-1.755,-2.033,16.227,0.000,2.604,9.712,-1.511,0.000,0.000,0.000,0.000,6,-0.004,0.010,784,1001,1265,939,2.472,9.522
334,0.000,-5.109,19.413,0.000,2.539,9.569,-1.663,-2.033,16.227,-0.005,2.656,9.691,-1.480,0.000,0.000,0.000,0.000,6,-0.003,0.010,784,1002,1264,938,2.380,9.522
335,0.000,-5.109,19.413,0.000,2.549,9.540,-1.541,-2.011,16.227,-0.005,2.661,9.664,-1.572,0.000,0.000,0.000,0.000,6,-0.001,0.010,783,1002,1264,938,2.472,9.522
336,0.000,-5.109,19.413,0.000,2.570,9.535,-1.480,-2.011,16.227,0.005,2.561,9.679,-1.633,0.000,0.000,0.000,0.000,6,-0.001,0.010,783,1002,1264,938,2.472,9.522
337,0.000,-5.109,19.413,0.005,2.582,9.545,-1.572,-2.011,16.227,0.005,2.594,9.650,-1.419,0.000,0.000,0.000,0.000,6,-0.002,0.010,784,1001,1264,938,2.472,9.522
338,0.000,-5.109,19.413,0.000,2.482,9.516,-1.663,-2.011,16.227,0.005,2.644,9.638,-1.205,0.000,0.000,0.000,0.000,6,-0.003,0.010,784,1001,1265,939,2.472,9.522
339,0.000,-5.109,19.413,0.000,2.458,9.494,-1.572,-2.011,16.227,-0.005,2.640,9.662,-1.144,0.000,0.000,0.000,0.000,6,-0.002,0.010,783,1002,1264,938,2.472,9.522
340,0.000,-5.109,19.413,0.005,2.496,9.482,-1.511,-1.989,16.227,-0.005,2.652,9.660,-1.266,0.000,0.000,0.000,0.000,6,-0.002,0.010,783,1002,1264,938,2.564,9.522
341,0.000,-5.109,19.413,0.000,2.534,9.511,-1.511,-1.989,16.227,-0.005,2.606,9.667,-1.328,0.000,0.000,0.000,0.000,6,-0.002,0.009,784,1001,1264,938,2.564,9.522
342,0.000,-5.109,19.413,-0.016,2.549,9.561,-1.511,-1.989,16.227,0.016,2.575,9.676,-1.297,0.000,0.000,0.000,0.000,6,-0.002,0.010,784,1005,1264,938,2.472,9.430
343,0.000,-5.109,19.413,0.005,2.518,9.547,-1.450,-1.989,16.227,0.000,2.570,9.698,-1.266,0.000,0.000,0.000,0.000,6,-0.002,0.008,784,1001,1265,938,2.380,9.430
344,0.000,-5.109,19.413,0.000,2.580,9.516,-1.541,-1.989,16.227,0.000,2.582,9.688,-1.297,0.000,0.000,0.000,0.000,6,-0.002,0.010,783,1002,1263,937,2.472,9.430
345,0.000,-5.109,19.413,0.016,2.592,9.528,-1.266,-1.989,16.227,0.000,2.580,9.636,-1.297,0.000,0.000,0.000,0.000,6,-0.002,0.010,783,1002,1263,938,2.472,9.430
346,0.000,-5.109,19.413,0.000,2.534,9.535,-1.236,-1.989,16.227,-0.005,2.568,9.628,-1.328,0.000,0.000,0.000,0.000,6,-0.002,0.010,787,1002,1264,938,2.472,9.522
347,0.000,-5.109,19.413,0.000,2.606,9.537,-1.144,-1.967,16.227,0.005,2.652,9.626,-1.266,0.000,0.000,0.000,0.000,6,-0.002,0.010,784,1000,1263,938,2.472,9.522
348,0.000,-5.109,19.413,0.005,2.570,9.566,-1.083,-1.967,16.227,0.000,2.642,9.676,-0.992,0.000,0.000,0.000,0.000,6,-0.002,0.010,783,1002,1264,938,2.564,9.430
349,0.000,-5.109,19.413,0.000,2.515,9.569,-1.205,-1.967,16.227,-0.005,2.630,9.681,-0.809,0.000,0.000,0.000,0.000,6,-0.002,0.010,783,1002,1263,937,2.564,9.522
350,0.000,-5.109,19.413,-0.005,2.537,9.552,-1.419,-1.945,16.227,-0.016,2.618,9.672,-0.839,0.000,0.000,0.000,0.000,6,-0.002,0.011,783,1002,1265,937,2.472,9.522
351,0.000,-5.109,19.413,0.000,2.568,9.530,-1.328,-1.945,16.227,0.005,2.577,9.674,-0.900,0.000,0.000,0.000,0.000,6,-0.002,0.010,783,1002,1265,938,2.564,9.522
352,0.000,-5.109,19.413,0.000,2.522,9.547,-1.236,-1.945,16.227,-0.005,2.599,9.669,-0.961,0.000,0.000,0.000,0.000,6,-0.002,0.010,783,1002,1265,937,2.564,9.522
353,0.000,-5.109,19.413,0.000,2.541,9.571,-1.266,-1.945,16.227,0.000,2.635,9.650,-0.992,0.000,0.000,0.000,0.000,6,-0.002,0.011,784,1002,1260,938,2.472,9.522
354,0.000,-5.109,19.413,0.000,2.606,9.564,-1.175,-1.945,16.227,0.005,2.642,9.648,-0.870,0.000,0.000,0.000,0.000,6,-0.002,0.010,784,1002,1267,937,2.472,9.522
355,0.000,-5.109,19.391,0.000,2.556,9.566,-1.266,-1.923,16.227,0.000,2.611,9.662,-0.900,0.000,0.000,0.000,0.000,6,-0.002,0.010,783,1002,1267,937,2.564,9.522
356,0.000,-5.109,19.391,0.000,2.563,9.554,-1.266,-1.923,16.227,0.016,2.577,9.662,-0.870,0.000,0.000,0.000,0.000,6,-0.002,0.010,783,1001,1265,938,2.472,9.522
357,0.000,-5.109,19.391,0.000,2.587,9.523,-1.083,-1.923,16.227,-0.005,2.642,9.681,-0.931,0.000,0.000,0.000,0.000,6,-0.001,0.011,783,1002,1261,938,2.472,9.522
358,0.000,-5.087,19.391,0.000,2.611,9.557,-0.992,-1.923,16.227,0.000,2.695,9.691,-0.992,0.000,0.000,0.000,0.000,6,-0.001,0.010,783,1002,1263,936,2.564,9.522
359,0.000,-5.087,19.391,0.000,2.604,9.533,-0.931,-1.901,16.227,0.000,2.668,9.645,-1.083,0.000,0.000,0.000,0.000,6,-0.001,0.011,784,1001,1263,936,2.472,9.522
360,0.000,-5.087,19.391,-0.005,2.592,9.530,-0.778,-1.901,16.227,0.000,2.642,9.614,-1.114,0.000,0.000,0.000,0.000,6,-0.001,0.010,783,1002,1263,941,2.564,9.522
361,0.000,-5.087,19.391,0.005,2.611,9.564,-0.839,-1.901,16.227,-0.005,2.668,9.628,-0.961,0.000,0.000,0.000,0.000,6,-0.001,0.011,783,1002,1263,935,2.564,9.522
362,0.000,-5.065,19.391,0.005,2.601,9.518,-0.748,-1.879,16.227,0.000,2.656,9.655,-0.717,0.000,-0.000,0.000,0.000,6,-0.001,0.010,783,1001,1263,934,2.564,9.522
363,0.000,-5.065,19.391,-0.005,2.525,9.463,-0.809,-1.879,16.227,0.000,2.676,9.676,-0.717,0.000,-0.001,0.000,0.000,6,-0.001,0.010,780,1002,1263,934,2.564,9.522
364,0.000,-5.065,19.391,0.000,2.551,9.482,-1.083,-1.857,16.227,0.016,2.688,9.676,-0.870,0.000,-0.001,0.000,0.000,6,-0.002,0.010,784,1002,1262,942,2.564,9.522
365,0.000,-5.065,19.391,0.016,2.664,9.525,-0.992,-1.857,16.227,-0.016,2.635,9.681,-0.839,0.000,-0.001,0.000,0.000,6,-0.002,0.011,784,1002,1263,939,2.564,9.522
366,0.000,-5.065,19.391,0.000,2.620,9.525,-0.778,-1.857,16.227,0.000,2.601,9.655,-0.717,0.000,-0.003,0.000,0.000,6,-0.002,0.010,783,1002,1263,939,2.564,9.430
367,0.000,-5.043,19.391,0.027,2.580,9.530,-0.626,-1.857,16.227,0.000,2.592,9.636,-0.626,0.000,-0.003,0.000,0.000,6,-0.003,0.010,784,1002,1262,938,2.472,9.430
368,0.000,-5.043,19.391,0.005,2.630,9.557,-0.565,-1.857,16.227,-0.005,2.668,9.648,-0.595,0.000,-0.003,0.000,0.000,6,-0.001,0.010,784,1001,1262,939,2.472,9.430
369,0.000,-5.043,19.391,0.005,2.609,9.542,-0.595,-1.835,16.227,0.005,2.680,9.645,-0.626,0.000,-0.003,0.000,0.000,6,-0.001,0.010,783,1002,1262,939,2.655,9.522
370,0.000,-5.043,19.391,0.000,2.558,9.533,-0.778,-1.835,16.227,0.000,2.676,9.621,-0.687,0.000,-0.002,0.000,0.000,6,-0.000,0.010,784,1002,1262,938,2.564,9.522
371,0.000,-5.043,19.391,0.000,2.558,9.554,-0.748,-1.835,16.227,0.005,2.695,9.621,-0.595,0.000,-0.002,0.000,0.000,6,-0.000,0.010,784,1001,1262,938,2.564,9.522
372,0.000,-5.043,19.391,-0.005,2.553,9.547,-0.595,-1.813,16.227,0.000,2.642,9.662,-0.626,0.000,-0.001,0.000,0.000,6,-0.003,0.010,783,1001,1262,939,2.564,9.522
373,0.000,-5.043,19.391,-0.016,2.632,9.581,-0.504,-1.813,16.227,0.000,2.635,9.676,-0.565,0.000,-0.002,0.000,0.000,6,-0.002,0.010,783,1001,1262,939,2.564,9.522
374,0.000,-5.021,19.391,0.005,2.644,9.554,-0.443,-1.813,16.227,-0.005,2.644,9.664,-0.534,0.000,-0.001,0.000,0.000,6,-0.000,0.010,783,1002,1262,939,2.472,9.522
375,0.000,-5.021,19.391,-0.005,2.640,9.518,-0.504,-1.813,16.227,-0.016,2.664,9.657,-0.473,0.000,-0.001,0.000,0.000,6,-0.000,0.010,783,1002,1262,939,2.472,9.522
376,0.000,-5.021,19.391,0.000,2.640,9.502,-0.412,-1.791,16.227,0.000,2.656,9.655,-0.473,0.000,-0.001,0.000,0.000,6,-0.002,0.010,784,1002,1262,940,2.472,9.522
377,0.000,-4.999,19.391,0.005,2.606,9.490,-0.351,-1.791,16.227,-0.005,2.664,9.652,-0.381,0.000,-0.001,0.000,0.000,6,-0.002,0.010,784,1002,1262,940,2.564,9.522
378,0.000,-4.999,19.391,-0.005,2.587,9.509,-0.412,-1.791,16.227,0.016,2.668,9.652,-0.290,0.000,-0.001,0.000,0.000,6,-0.001,0.010,783,1002,1262,939,2.564,9.522
379,0.000,-4.999,19.391,0.000,2.525,9.504,-0.443,-1.791,16.227,0.000,2.635,9.667,-0.351,0.000,-0.001,0.000,0.000,6,-0.001,0.010,783,1001,1261,940,2.564,9.430
380,0.000,-4.999,19.391,0.005,2.573,9.533,-0.473,-1.791,16.227,0.000,2.649,9.691,-0.381,0.000,-0.001,0.000,0.000,6,-0.001,0.010,787,1001,1261,939,2.564,9.430
381,0.000,-4.999,19.391,0.000,2.683,9.583,-0.351,-1.769,16.227,-0.005,2.654,9.660,-0.412,0.000,-0.001,0.000,0.000,6,-0.002,0.009,783,1003,1261,940,2.564,9.430
382,0.000,-4.999,19.391,-0.005,2.611,9.542,-0.259,-1.769,16.227,0.000,2.647,9.640,-0.320,0.000,-0.000,0.000,0.000,6,-0.002,0.009,784,1001,1262,939,2.564,9.430
383,0.000,-4.999,19.391,0.000,2.616,9.566,-0.259,-1.769,16.227,0.000,2.616,9.636,-0.198,0.000,0.000,0.000,0.000,6,-0.001,0.010,784,1002,1261,940,2.472,9.430
384,0.000,-4.977,19.391,0.005,2.618,9.545,-0.198,-1.769,16.227,0.000,2.609,9.638,-0.290,0.000,0.000,0.000,0.000,6,-0.001,0.010,783,1001,1260,940,2.564,9.522
385,0.000,-4.977,19.391,-0.016,2.570,9.492,-0.290,-1.769,16.227,0.005,2.666,9.695,-0.198,0.000,0.000,0.000,0.000,6,-0.002,0.010,783,1001,1261,939,2.655,9.522
386,0.000,-4.977,19.391,-0.016,2.549,9.475,-0.290,-1.769,16.227,0.005,2.668,9.700,-0.198,0.000,0.000,0.000,0.000,6,-0.002,0.010,784,999,1260,940,2.564,9.522
387,0.000,-4.977,19.391,0.000,2.630,9.504,-0.107,-1.769,16.227,0.000,2.664,9.724,-0.259,0.000,0.000,0.000,0.000,6,-0.002,0.009,783,1001,1260,940,2.564,9.522
388,0.000,-4.977,19.391,0.000,2.659,9.482,-0.259,-1.747,16.227,-0.005,2.620,9.686,-0.137,0.000,0.000,0.000,0.000,6,-0.002,0.010,784,1001,1262,940,2.564,9.522
389,0.000,-4.955,19.391,0.000,2.644,9.502,-0.259,-1.747,16.227,0.016,2.678,9.660,0.000,0.000,0.000,0.000,0.000,6,-0.002,0.010,783,1001,1263,939,2.564,9.430
390,0.000,-4.955,19.391,0.005,2.594,9.504,-0.137,-1.747,16.227,-0.005,2.656,9.660,0.000,0.000,0.000,0.000,0.000,6,-0.002,0.010,783,1001,1259,940,2.472,9.430
391,0.000,-4.955,19.391,-0.005,2.644,9.509,-0.046,-1.747,16.227,0.000,2.606,9.703,-0.076,0.000,0.000,0.000,0.000,6,-0.002,0.010,784,1001,1260,940,2.564,9.430
392,0.000,-4.955,19.391,0.005,2.711,9.535,0.015,-1.747,16.227,-0.005,2.620,9.691,-0.168,0.000,0.000,0.000,0.000,6,-0.002,0.010,785,1001,1256,941,2.655,9.430
393,0.000,-4.933,19.391,0.005,2.592,9.499,0.000,-1.747,16.227,0.005,2.690,9.683,-0.198,0.000,0.000,0.000,0.000,6,-0.001,0.010,783,1001,1263,939,2.564,9.430
394,0.000,-4.933,19.391,0.000,2.537,9.492,0.076,-1.747,16.227,0.000,2.757,9.681,-0.137,0.000,0.000,0.000,0.000,6,-0.002,0.010,784,1001,1262,940,2.564,9.430
395,0.000,-4.933,19.391,0.000,2.637,9.461,0.198,-1.725,16.227,0.000,2.723,9.695,0.015,0.000,0.000,0.000,0.000,6,-0.002,0.010,784,1001,1259,940,2.564,9.430
396,0.000,-4.933,19.391,-0.005,2.683,9.511,0.076,-1.725,16.227,-0.005,2.656,9.683,0.076,0.000,0.000,0.000,0.000,6,-0.002,0.010,783,1001,1258,940,2.655,9.522
397,0.000,-4.933,19.391,0.000,2.616,9.583,-0.046,-1.725,16.227,0.000,2.623,9.664,0.000,0.000,0.000,0.000,0.000,6,-0.002,0.010,783,1001,1260,938,2.564,9.430
398,0.000,-4.933,19.391,0.005,2.577,9.537,-0.137,-1.725,16.227,0.000,2.647,9.672,-0.046,0.000,0.000,0.000,0.000,6,-0.002,0.010,784,1000,1260,941,2.472,9.430
399,0.000,-4.911,19.391,0.000,2.620,9.509,0.000,-1.725,16.227,0.000,2.642,9.705,-0.107,0.000,0.000,0.000,0.000,6,-0.002,0.010,783,1001,1260,941,2.564,9.430
400,0.000,-4.911,19.391,0.000,2.671,9.528,0.046,-1.725,16.227,0.005,2.625,9.693,-0.107,0.000,0.000,0.000,0.000,6,-0.002,0.010,784,1000,1260,941,2.655,9.430
401,0.000,-4.911,19.391,0.000,2.683,9.528,0.107,-1.725,16.227,0.005,2.656,9.681,0.015,0.000,0.000,0.000,0.000,6,-0.001,0.010,784,1001,1259,936,2.564,9.522
302,0.000,-4.955,19.435,-0.016,2.539,9.542,-2.213,-2.186,16.227,0.000,2.508,9.717,-1.816,0.000,0.000,0.000,0.000,6,-0.002,0.010,784,1002,1267,940,2.472,9.522
303,0.000,-4.955,19.435,0.005,2.494,9.523,-2.090,-2.186,16.227,0.005,2.558,9.695,-1.877,0.000,0.000,0.000,0.000,6,-0.002,0.010,783,1006,1268,940,2.472,9.522
304,0.000,-4.977,19.435,0.005,2.494,9.540,-1.907,-2.186,16.227,-0.005,2.649,9.655,-1.938,0.000,0.000,0.000,0.000,6,-0.001,0.008,783,1002,1268,940,2.380,9.522
305,0.000,-4.977,19.435,0.005,2.491,9.545,-1.968,-2.164,16.227,0.005,2.568,9.655,-2.029,0.000,0.000,0.000,0.000,6,-0.001,0.009,783,1002,1268,940,2.472,9.522
306,0.000,-4.977,19.435,0.005,2.489,9.494,-2.029,-2.164,16.227,0.000,2.601,9.655,-1.907,0.000,0.000,0.000,0.000,6,-0.001,0.010,783,1002,1267,940,2.472,9.522
307,0.000,-4.977,19.435,-0.005,2.546,9.490,-2.060,-2.164,16.227,-0.005,2.570,9.660,-1.877,0.000,0.000,0.000,0.000,6,-0.002,0.010,788,1002,1267,940,2.472,9.522
308,0.000,-4.977,19.435,-0.005,2.494,9.516,-2.152,-2.164,16.227,0.000,2.534,9.672,-1.907,0.000,0.000,0.000,0.000,6,-0.001,0.010,784,1003,1268,940,2.472,9.522
309,0.000,-4.999,19.435,0.016,2.472,9.530,-2.121,-2.164,16.227,0.000,2.549,9.681,-1.816,0.000,0.000,0.000,0.000,6,-0.001,0.009,784,1002,1266,940,2.472,9.522
310,0.000,-4.999,19.435,-0.005,2.541,9.521,-2.029,-2.142,16.227,0.005,2.613,9.688,-1.907,0.000,0.000,0.000,0.000,6,-0.001,0.010,783,1002,1266,940,2.472,9.430
311,0.000,-4.999,19.435,0.016,2.510,9.542,-2.060,-2.142,16.227,-0.005,2.604,9.707,-1.938,0.000,0.000,0.000,0.000,6,-0.002,0.010,784,1002,1269,939,2.472,9.430
312,0.000,-4.999,19.435,0.000,2.513,9.559,-2.090,-2.142,16.227,-0.005,2.599,9.705,-1.724,0.000,0.000,0.000,0.000,6,-0.001,0.010,784,1002,1269,940,2.472,9.430
313,0.000,-5.021,19.435,0.016,2.491,9.547,-2.090,-2.142,16.227,0.000,2.570,9.667,-1.633,0.000,0.000,0.000,0.000,6,-0.002,0.009,784,1002,1268,939,2.472,9.522
314,0.000,-5.021,19.435,0.000,2.486,9.559,-2.152,-2.120,16.227,0.000,2.541,9.616,-1.907,0.000,0.000,0.000,0.000,6,-0.002,0.010,784,1002,1262,940,2.472,9.522
315,0.000,-5.021,19.435,0.000,2.498,9.581,-2.090,-2.120,16.227,-0.005,2.556,9.643,-1.907,0.000,0.000,0.000,0.000,6,-0.002,0.010,783,1002,1269,940,2.472,9.522
316,0.000,-5.043,19.413,0.000,2.549,9.578,-1.968,-2.120,16.227,0.000,2.520,9.698,-1.877,0.000,0.000,0.000,0.000,6,-0.002,0.010,784,1002,1270,939,2.472,9.522
317,0.000,-5.043,19.413,-0.005,2.546,9.581,-1.907,-2.120,16.227,0.000,2.551,9.667,-1.846,0.000,0.000,0.000,0.000,6,-0.002,0.010,784,1002,1267,940,2.472,9.522
318,0.000,-5.043,19.413,0.005,2.541,9.597,-1.968,-2.120,16.227,0.000,2.620,9.643,-1.755,0.000,0.000,0.000,0.000,6,-0.002,0.010,784,1002,1265,938,2.472,9.522
319,0.000,-5.043,19.413,0.000,2.565,9.571,-2.060,-2.120,16.227,0.016,2.613,9.669,-1.663,0.000,0.000,0.000,0.000,6,-0.002,0.010,782,1002,1267,939,2.472,9.522
320,0.000,-5.043,19.413,0.000,2.510,9.554,-1.999,-2.098,16.227,0.000,2.597,9.664,-1.785,0.000,0.000,0.000,0.000,6,-0.002,0.010,784,1003,1265,938,2.472,9.522
321,0.000,-5.043,19.413,0.005,2.515,9.600,-1.877,-2.098,16.227,0.005,2.609,9.652,-1.816,0.000,0.000,0.000,0.000,6,-0.002,0.010,783,1002,1266,942,2.472,9.522
322,0.000,-5.043,19.413,-0.005,2.527,9.624,-1.785,-2.098,16.227,-0.016,2.568,9.650,-1.755,0.000,0.000,0.000,0.000,6,-0.002,0.010,783,1002,1266,937,2.472,9.522
323,0.000,-5.065,19.413,-0.005,2.525,9.602,-1.755,-2.098,16.227,-0.005,2.568,9.672,-1.633,0.000,0.000,0.000,0.000,6,-0.002,0.010,784,1002,1265,936,2.564,9.522
324,0.000,-5.065,19.413,-0.005,2.503,9.561,-1.694,-2.098,16.227,0.005,2.604,9.688,-1.450,0.000,0.000,0.000,0.000,6,-0.001,0.009,779,1002,1265,936,2.472,9.522
325,0.000,-5.065,19.413,-0.005,2.484,9.564,-1.724,-2.076,16.227,0.000,2.546,9.669,-1.419,0.000,0.000,0.000,0.000,6,-0.002,0.010,784,1000,1265,942,2.472,9.522
326,0.000,-5.065,19.413,0.005,2.556,9.588,-1.724,-2.076,16.227,0.005,2.577,9.667,-1.602,0.000,0.000,0.000,0.000,6,-0.002,0.010,784,1002,1266,943,2.472,9.613
327,0.000,-5.065,19.413,0.000,2.501,9.561,-1.694,-2.076,16.227,0.005,2.620,9.648,-1.724,0.000,0.000,0.000,0.000,6,-0.002,0.010,783,1002,1265,940,2.472,9.522
328,0.000,-5.087,19.413,0.000,2.479,9.557,-1.785,-2.076,16.227,0.005,2.556,9.640,-1.755,0.000,0.000,0.000,0.000,6,-0.002,0.010,784,1002,1265,937,2.472,9.522
329,0.000,-5.087,19.413,0.005,2.515,9.559,-1.694,-2.076,16.227,0.005,2.597,9.657,-1.602,0.000,0.000,0.000,0.000,6,-0.002,0.010,784,1002,1265,940,2.472,9.522
330,0.000,-5.087,19.413,-0.005,2.455,9.523,-1.602,-2.054,16.227,0.000,2.647,9.664,-1.511,0.000,0.000,0.000,0.000,6,-0.002,0.010,784,1002,1264,939,2.472,9.522
331,0.000,-5.109,19.413,0.000,2.474,9.573,-1.694,-2.054,16.227,-0.005,2.630,9.676,-1.450,0.000,0.000,0.000,0.000,6,-0.002,0.010,784,1002,1265,939,2.472,9.522
332,0.000,-5.109,19.413,0.000,2.544,9.566,-1.816,-2.054,16.227,0.005,2.613,9.693,-1.541,0.000,0.000,0.000,0.000,6,-0.001,0.010,784,1002,1265,939,2.472,9.522
333,0.000,-5.109,19.413,0.005,2.525,9.523,-1.755,-2.033,16.227,0.000,2.604,9.712,-1.511,0.000,0.000,0.000,0.000,6,-0.004,0.010,784,1001,1265,939,2.472,9.522
334,0.000,-5.109,19.413,0.000,2.539,9.569,-1.663,-2.033,16.227,-0.005,2.656,9.691,-1.480,0.000,0.000,0.000,0.000,6,-0.003,0.010,784,1002,1264,938,2.380,9.522
335,0.000,-5.109,19.413,0.000,2.549,9.540,-1.541,-2.011,16.227,-0.005,2.661,9.664,-1.572,0.000,0.000,0.000,0.000,6,-0.001,0.010,783,1002,1264,938,2.472,9.522
336,0.000,-5.109,19.413,0.000,2.570,9.535,-1.480,-2.011,16.227,0.005,2.561,9.679,-1.633,0.000,0.000,0.000,0.000,6,-0.001,0.010,783,1002,1264,938,2.472,9.522
337,0.000,-5.109,19.413,0.005,2.582,9.545,-1.572,-2.011,16.227,0.005,2.594,9.650,-1.419,0.000,0.000,0.000,0.000,6,-0.002,0.010,784,1001,1264,938,2.472,9.522
338,0.000,-5.109,19.413,0.000,2.482,9.516,-1.663,-2.011,16.227,0.005,2.644,9.638,-1.205,0.000,0.000,0.000,0.000,6,-0.003,0.010,784,1001,1265,939,2.472,9.522
339,0.000,-5.109,19.413,0.000,2.458,9.494,-1.572,-2.011,16.227,-0.005,2.640,9.662,-1.144,0.000,0.000,0.000,0.000,6,-0.002,0.010,783,1002,1264,938,2.472,9.522
340,0.000,-5.109,19.413,0.005,2.496,9.482,-1.511,-1.989,16.227,-0.005,2.652,9.660,-1.266,0.000,0.000,0.000,0.000,6,-0.002,0.010,783,1002,1264,938,2.564,9.522
341,0.000,-5.109,19.413,0.000,2.534,9.511,-1.511,-1.989,16.227,-0.005,2.606,9.667,-1.328,0.000,0.000,0.000,0.000,6,-0.002,0.009,784,1001,1264,938,2.564,9.522
342,0.000,-5.109,19.413,-0.016,2.549,9.561,-1.511,-1.989,16.227,0.016,2.575,9.676,-1.297,0.000,0.000,0.000,0.000,6,-0.002,0.010,784,1005,1264,938,2.472,9.430
343,0.000,-5.109,19.413,0.005,2.518,9.547,-1.450,-1.989,16.227,0.000,2.570,9.698,-1.266,0.000,0.000,0.000,0.000,6,-0.002,0.008,784,1001,1265,938,2.380,9.430
344,0.000,-5.109,19.413,0.000,2.580,9.516,-1.541,-1.989,16.227,0.000,2.582,9.688,-1.297,0.000,0.000,0.000,0.000,6,-0.002,0.010,783,1002,1263,937,2.472,9.430
345,0.000,-5.109,19.413,0.016,2.592,9.528,-1.266,-1.989,16.227,0.000,2.580,9.636,-1.297,0.000,0.000,0.000,0.000,6,-0.002,0.010,783,1002,1263,938,2.472,9.430
346,0.000,-5.109,19.413,0.000,2.534,9.535,-1.236,-1.989,16.227,-0.005,2.568,9.628,-1.328,0.000,0.000,0.000,0.000,6,-0.002,0.010,787,1002,1264,938,2.472,9.522
347,0.000,-5.109,19.413,0.000,2.606,9.537,-1.144,-1.967,16.227,0.005,2.652,9.626,-1.266,0.000,0.000,0.000,0.000,6,-0.002,0.010,784,1000,1263,938,2.472,9.522
348,0.000,-5.109,19.413,0.005,2.570,9.566,-1.083,-1.967,16.227,0.000,2.642,9.676,-0.992,0.000,0.000,0.000,0.000,6,-0.002,0.010,783,1002,1264,938,2.564,9.430
349,0.000,-5.109,19.413,0.000,2.515,9.569,-1.205,-1.967,16.227,-0.005,2.630,9.681,-0.809,0.000,0.000,0.000,0.000,6,-0.002,0.010,783,1002,1263,937,2.564,9.522
350,0.000,-5.109,19.413,-0.005,2.537,9.552,-1.419,-1.945,16.227,-0.016,2.618,9.672,-0.839,0.000,0.000,0.000,0.000,6,-0.002,0.011,783,1002,1265,937,2.472,9.522
351,0.000,-5.109,19.413,0.000,2.568,9.530,-1.328,-1.945,16.227,0.005,2.577,9.674,-0.900,0.000,0.000,0.000,0.000,6,-0.002,0.010,783,1002,1265,938,2.564,9.522
352,0.000,-5.109,19.413,0.000,2.522,9.547,-1.236,-1.945,16.227,-0.005,2.599,9.669,-0.961,0.000,0.000,0.000,0.000,6,-0.002,0.010,783,1002,1265,937,2.564,9.522
353,0.000,-5.109,19.413,0.000,2.541,9.571,-1.266,-1.945,16.227,0.000,2.635,9.650,-0.992,0.000,0.000,0.000,0.000,6,-0.002,0.011,784,1002,1260,938,2.472,9.522
354,0.000,-5.109,19.413,0.000,2.606,9.564,-1.175,-1.945,16.227,0.005,2.642,9.648,-0.870,0.000,0.000,0.000,0.000,6,-0.002,0.010,784,1002,1267,937,2.472,9.522
355,0.000,-5.109,19.391,0.000,2.556,9.566,-1.266,-1.923,16.227,0.000,2.611,9.662,-0.900,0.000,0.000,0.000,0.000,6,-0.002,0.010,783,1002,1267,937,2.564,9.522
356,0.000,-5.109,19.391,0.000,2.563,9.554,-1.266,-1.923,16.227,0.016,2.577,9.662,-0.870,0.000,0.000,0.000,0.000,6,-0.002,0.010,783,1001,1265,938,2.472,9.522
357,0.000,-5.109,19.391,0.000,2.587,9.523,-1.083,-1.923,16.227,-0.005,2.642,9.681,-0.931,0.000,0.000,0.000,0.000,6,-0.001,0.011,783,1002,1261,938,2.472,9.522
358,0.000,-5.087,19.391,0.000,2.611,9.557,-0.992,-1.923,16.227,0.000,2.695,9.691,-0.992,0.000,0.000,0.000,0.000,6,-0.001,0.010,783,1002,1263,936,2.564,9.522
359,0.000,-5.087,19.391,0.000,2.604,9.533,-0.931,-1.901,16.227,0.000,2.668,9.645,-1.083,0.000,0.000,0.000,0.000,6,-0.001,0.011,784,1001,1263,936,2.472,9.522
360,0.000,-5.087,19.391,-0.005,2.592,9.530,-0.778,-1.901,16.227,0.000,2.642,9.614,-1.114,0.000,0.000,0.000,0.000,6,-0.001,0.010,783,1002,1263,941,2.564,9.522
361,0.000,-5.087,19.391,0.005,2.611,9.564,-0.839,-1.901,16.227,-0.005,2.668,9.628,-0.961,0.000,0.000,0.000,0.000,6,-0.001,0.011,783,1002,1263,935,2.564,9.522
362,0.000,-5.065,19.391,0.005,2.601,9.518,-0.748,-1.879,16.227,0.000,2.656,9.655,-0.717,0.000,-0.000,0.000,0.000,6,-0.001,0.010,783,1001,1263,934,2.564,9.522
363,0.000,-5.065,19.391,-0.005,2.525,9.463,-0.809,-1.879,16.227,0.000,2.676,9.676,-0.717,0.000,-0.001,0.000,0.000,6,-0.001,0.010,780,1002,1263,934,2.564,9.522
364,0.000,-5.065,19.391,0.000,2.551,9.482,-1.083,-1.857,16.227,0.016,2.688,9.676,-0.870,0.000,-0.001,0.000,0.000,6,-0.002,0.010,784,1002,1262,942,2.564,9.522
365,0.000,-5.065,19.391,0.016,2.664,9.525,-0.992,-1.857,16.227,-0.016,2.635,9.681,-0.839,0.000,-0.001,0.000,0.000,6,-0.002,0.011,784,1002,1263,939,2.564,9.522
366,0.000,-5.065,19.391,0.000,2.620,9.525,-0.778,-1.857,16.227,0.000,2.601,9.655,-0.717,0.000,-0.003,0.000,0.000,6,-0.002,0.010,783,1002,1263,939,2.564,9.430
367,0.000,-5.043,19.391,0.027,2.580,9.530,-0.626,-1.857,16.227,0.000,2.592,9.636,-0.626,0.000,-0.003,0.000,0.000,6,-0.003,0.010,784,1002,1262,938,2.472,9.430
368,0.000,-5.043,19.391,0.005,2.630,9.557,-0.565,-1.857,16.227,-0.005,2.668,9.648,-0.595,0.000,-0.003,0.000,0.000,6,-0.001,0.010,784,1001,1262,939,2.472,9.430
369,0.000,-5.043,19.391,0.005,2.609,9.542,-0.595,-1.835,16.227,0.005,2.680,9.645,-0.626,0.000,-0.003,0.000,0.000,6,-0.001,0.010,783,1002,1262,939,2.655,9.522
370,0.000,-5.043,19.391,0.000,2.558,9.533,-0.778,-1.835,16.227,0.000,2.676,9.621,-0.687,0.000,-0.002,0.000,0.000,6,-0.000,0.010,784,1002,1262,938,2.564,9.522
371,0.000,-5.043,19.391,0.000,2.558,9.554,-0.748,-1.835,16.227,0.005,2.695,9.621,-0.595,0.000,-0.002,0.000,0.000,6,-0.000,0.010,784,1001,1262,938,2.564,9.522
372,0.000,-5.043,19.391,-0.005,2.553,9.547,-0.595,-1.813,16.227,0.000,2.642,9.662,-0.626,0.000,-0.001,0.000,0.000,6,-0.003,0.010,783,1001,1262,939,2.564,9.522
373,0.000,-5.043,19.391,-0.016,2.632,9.581,-0.504,-1.813,16.227,0.000,2.635,9.676,-0.565,0.000,-0.002,0.000,0.000,6,-0.002,0.010,783,1001,1262,939,2.564,9.522
374,0.000,-5.021,19.391,0.005,2.644,9.554,-0.443,-1.813,16.227,-0.005,2.644,9.664,-0.534,0.000,-0.001,0.000,0.000,6,-0.000,0.010,783,1002,1262,939,2.472,9.522
375,0.000,-5.021,19.391,-0.005,2.640,9.518,-0.504,-1.813,16.227,-0.016,2.664,9.657,-0.473,0.000,-0.001,0.000,0.000,6,-0.000,0.010,783,1002,1262,939,2.472,9.522
376,0.000,-5.021,19.391,0.000,2.640,9.502,-0.412,-1.791,16.227,0.000,2.656,9.655,-0.473,0.000,-0.001,0.000,0.000,6,-0.002,0.010,784,1002,1262,940,2.472,9.522
377,0.000,-4.999,19.391,0.005,2.606,9.490,-0.351,-1.791,16.227,-0.005,2.664,9.652,-0.381,0.000,-0.001,0.000,0.000,6,-0.002,0.010,784,1002,1262,940,2.564,9.522
378,0.000,-4.999,19.391,-0.005,2.587,9.509,-0.412,-1.791,16.227,0.016,2.668,9.652,-0.290,0.000,-0.001,0.000,0.000,6,-0.001,0.010,783,1002,1262,939,2.564,9.522
379,0.000,-4.999,19.391,0.000,2.525,9.504,-0.443,-1.791,16.227,0.000,2.635,9.667,-0.351,0.000,-0.001,0.000,0.000,6,-0.001,0.010,783,1001,1261,940,2.564,9.430
380,0.000,-4.999,19.391,0.005,2.573,9.533,-0.473,-1.791,16.227,0.000,2.649,9.691,-0.381,0.000,-0.001,0.000,0.000,6,-0.001,0.010,787,1001,1261,939,2.564,9.430
381,0.000,-4.999,19.391,0.000,2.683,9.583,-0.351,-1.769,16.227,-0.005,2.654,9.660,-0.412,0.000,-0.001,0.000,0.000,6,-0.002,0.009,783,1003,1261,940,2.564,9.430
382,0.000,-4.999,19.391,-0.005,2.611,9.542,-0.259,-1.769,16.227,0.000,2.647,9.640,-0.320,0.000,-0.000,0.000,0.000,6,-0.002,0.009,784,1001,1262,939,2.564,9.430
383,0.000,-4.999,19.391,0.000,2.616,9.566,-0.259,-1.769,16.227,0.000,2.616,9.636,-0.198,0.000,0.000,0.000,0.000,6,-0.001,0.010,784,1002,1261,940,2.472,9.430
384,0.000,-4.977,19.391,0.005,2.618,9.545,-0.198,-1.769,16.227,0.000,2.609,9.638,-0.290,0.000,0.000,0.000,0.000,6,-0.001,0.010,783,1001,1260,940,2.564,9.522
385,0.000,-4.977,19.391,-0.016,2.570,9.492,-0.290,-1.769,16.227,0.005,2.666,9.695,-0.198,0.000,0.000,0.000,0.000,6,-0.002,0.010,783,1001,1261,939,2.655,9.522
386,0.000,-4.977,19.391,-0.016,2.549,9.475,-0.290,-1.769,16.227,0.005,2.668,9.700,-0.198,0.000,0.000,0.000,0.000,6,-0.002,0.010,784,999,1260,940,2.564,9.522
387,0.000,-4.977,19.391,0.000,2.630,9.504,-0.107,-1.769,16.227,0.000,2.664,9.724,-0.259,0.000,0.000,0.000,0.000,6,-0.002,0.009,783,1001,1260,940,2.564,9.522
388,0.000,-4.977,19.391,0.000,2.659,9.482,-0.259,-1.747,16.227,-0.005,2.620,9.686,-0.137,0.000,0.000,0.000,0.000,6,-0.002,0.010,784,1001,1262,940,2.564,9.522
389,0.000,-4.955,19.391,0.000,2.644,9.502,-0.259,-1.747,16.227,0.016,2.678,9.660,0.000,0.000,0.000,0.000,0.000,6,-0.002,0.010,783,1001,1263,939,2.564,9.430
390,0.000,-4.955,19.391,0.005,2.594,9.504,-0.137,-1.747,16.227,-0.005,2.656,9.660,0.000,0.000,0.000,0.000,0.000,6,-0.002,0.010,783,1001,1259,940,2.472,9.430
391,0.000,-4.955,19.391,-0.005,2.644,9.509,-0.046,-1.747,16.227,0.000,2.606,9.703,-0.076,0.000,0.000,0.000,0.000,6,-0.002,0.010,784,1001,1260,940,2.564,9.430
392,0.000,-4.955,19.391,0.005,2.711,9.535,0.015,-1.747,16.227,-0.005,2.620,9.691,-0.168,0.000,0.000,0.000,0.000,6,-0.002,0.010,785,1001,1256,941,2.655,9.430
393,0.000,-4.933,19.391,0.005,2.592,9.499,0.000,-1.747,16.227,0.005,2.690,9.683,-0.198,0.000,0.000,0.000,0.000,6,-0.001,0.010,783,1001,1263,939,2.564,9.430
394,0.000,-4.933,19.391,0.000,2.537,9.492,0.076,-1.747,16.227,0.000,2.757,9.681,-0.137,0.000,0.000,0.000,0.000,6,-0.002,0.010,784,1001,1262,940,2.564,9.430
395,0.000,-4.933,19.391,0.000,2.637,9.461,0.198,-1.725,16.227,0.000,2.723,9.695,0.015,0.000,0.000,0.000,0.000,6,-0.002,0.010,784,1001,1259,940,2.564,9.430
396,0.000,-4.933,19.391,-0.005,2.683,9.511,0.076,-1.725,16.227,-0.005,2.656,9.683,0.076,0.000,0.000,0.000,0.000,6,-0.002,0.010,783,1001,1258,940,2.655,9.522
397,0.000,-4.933,19.391,0.000,2.616,9.583,-0.046,-1.725,16.227,0.000,2.623,9.664,0.000,0.000,0.000,0.000,0.000,6,-0.002,0.010,783,1001,1260,938,2.564,9.430
398,0.000,-4.933,19.391,0.005,2.577,9.537,-0.137,-1.725,16.227,0.000,2.647,9.672,-0.046,0.000,0.000,0.000,0.000,6,-0.002,0.010,784,1000,1260,941,2.472,9.430
399,0.000,-4.911,19.391,0.000,2.620,9.509,0.000,-1.725,16.227,0.000,2.642,9.705,-0.107,0.000,0.000,0.000,0.000,6,-0.002,0.010,783,1001,1260,941,2.564,9.430
400,0.000,-4.911,19.391,0.000,2.671,9.528,0.046,-1.725,16.227,0.005,2.625,9.693,-0.107,0.000,0.000,0.000,0.000,6,-0.002,0.010,784,1000,1260,941,2.655,9.430
401,0.000,-4.911,19.391,0.000,2.683,9.528,0.107,-1.725,16.227,0.005,2.656,9.681,0.015,0.000,0.000,0.000,0.000,6,-0.001,0.010,784,1001,1259,936,2.564,9.522
402,0.000,-4.889,19.391,0.000,2.604,9.502,0.168,-1.703,16.227,0.000,2.690,9.686,0.198,0.000,0.000,0.000,0.000,6,-0.001,0.010,780,1001,1259,941,2.564,9.522
403,0.000,-4.889,19.391,-0.005,2.568,9.540,0.076,-1.703,16.227,0.000,2.654,9.664,0.198,0.000,0.000,0.000,0.000,6,-0.002,0.010,784,1000,1259,943,2.564,9.430
404,0.000,-4.889,19.391,0.016,2.661,9.578,0.046,-1.703,16.227,0.000,2.611,9.693,0.076,0.000,0.000,0.000,0.000,6,-0.002,0.011,783,1001,1259,943,2.655,9.522
405,0.000,-4.889,19.391,0.005,2.632,9.542,0.198,-1.703,16.227,0.005,2.664,9.688,0.015,0.000,0.000,0.000,0.000,6,-0.002,0.010,783,1001,1260,939,2.655,9.522
406,0.000,-4.889,19.391,-0.005,2.544,9.490,0.381,-1.703,16.227,0.000,2.678,9.691,0.290,0.000,0.000,0.000,0.000,6,-0.002,0.010,784,1001,1259,938,2.564,9.430
407,0.000,-4.889,19.391,0.000,2.661,9.497,0.290,-1.703,16.227,0.000,2.625,9.717,0.229,0.000,0.000,0.000,0.000,6,-0.003,0.010,782,1001,1259,940,2.564,9.522
408,0.000,-4.889,19.391,-0.038,2.726,9.518,0.229,-1.703,16.227,-0.005,2.630,9.693,0.137,0.000,0.000,0.000,0.000,6,-0.002,0.010,784,1001,1259,939,2.655,9.522
409,0.000,-4.867,19.391,0.005,2.659,9.490,0.351,-1.703,16.227,0.000,2.668,9.683,0.290,0.000,0.000,0.000,0.000,6,-0.001,0.010,783,1001,1259,940,2.564,9.522
410,0.000,-4.867,19.391,-0.005,2.625,9.502,0.412,-1.703,16.227,-0.005,2.642,9.669,0.320,0.000,0.000,0.000,0.000,6,-0.001,0.010,784,1001,1259,940,2.472,9.430
411,0.000,-4.867,19.391,0.000,2.611,9.518,0.351,-1.703,16.227,0.000,2.606,9.669,0.259,0.000,0.000,0.000,0.000,6,-0.003,0.010,783,1001,1259,940,2.655,9.430
412,0.000,-4.867,19.391,0.016,2.604,9.504,0.381,-1.703,16.227,-0.005,2.642,9.676,0.229,0.000,0.000,0.000,0.000,6,-0.002,0.010,784,1001,1259,940,2.655,9.430
413,0.000,-4.867,19.391,0.000,2.599,9.490,0.381,-1.703,16.227,0.000,2.700,9.652,0.229,0.000,0.000,0.000,0.000,6,-0.001,0.010,784,1001,1258,940,2.655,9.430
414,0.000,-4.867,19.391,-0.027,2.664,9.559,0.351,-1.681,16.227,-0.005,2.714,9.664,0.259,0.000,0.000,0.000,0.000,6,-0.001,0.010,783,1000,1258,940,2.564,9.430
415,0.000,-4.845,19.391,0.000,2.630,9.566,0.137,-1.681,16.227,0.000,2.649,9.662,0.229,0.000,0.000,0.000,0.000,6,-0.003,0.010,783,1001,1258,940,2.564,9.430
416,0.000,-4.845,19.391,-0.005,2.594,9.492,0.168,-1.681,16.227,0.005,2.647,9.645,0.351,0.000,0.000,0.000,0.000,6,-0.003,0.010,783,1001,1258,940,2.564,9.430
417,0.000,-4.845,19.391,0.000,2.688,9.511,0.320,-1.681,16.227,0.000,2.688,9.679,0.381,0.000,0.000,0.000,0.000,6,-0.003,0.010,783,1001,1258,939,2.564,9.430
418,0.000,-4.845,19.391,0.016,2.690,9.521,0.565,-1.681,16.227,0.000,2.623,9.736,0.320,0.000,0.000,0.000,0.000,6,-0.003,0.010,783,1000,1258,940,2.655,9.522
419,0.000,-4.823,19.391,0.000,2.635,9.502,0.595,-1.681,16.227,0.005,2.644,9.695,0.290,0.000,0.000,0.000,0.000,6,-0.003,0.010,787,1000,1258,940,2.564,9.522
420,0.000,-4.823,19.391,0.000,2.644,9.506,0.565,-1.681,16.227,0.000,2.673,9.660,0.290,0.000,0.000,0.000,0.000,6,-0.003,0.010,783,1001,1258,940,2.564,9.430
421,0.000,-4.823,19.391,-0.005,2.688,9.540,0.504,-1.681,16.227,-0.005,2.613,9.719,0.320,0.000,0.000,0.000,0.000,6,-0.003,0.010,783,1000,1259,940,2.655,9.430
422,0.000,-4.823,19.391,0.005,2.671,9.530,0.443,-1.681,16.227,0.000,2.611,9.743,0.381,0.000,0.000,0.000,0.000,6,-0.003,0.010,783,1001,1258,939,2.655,9.522
423,0.000,-4.801,19.391,-0.016,2.654,9.554,0.443,-1.681,16.227,-0.016,2.628,9.707,0.351,0.000,0.000,0.000,0.000,6,-0.003,0.010,783,1001,1258,939,2.564,9.430
424,0.000,-4.801,19.391,0.000,2.637,9.545,0.412,-1.681,16.227,0.000,2.630,9.693,0.381,0.000,0.000,0.000,0.000,6,-0.003,0.010,785,1000,1258,939,2.564,9.430
425,0.000,-4.801,19.391,0.000,2.642,9.511,0.381,-1.681,16.227,0.000,2.652,9.703,0.381,0.000,0.000,0.000,0.000,6,-0.003,0.010,784,998,1258,940,2.655,9.522
426,0.000,-4.801,19.391,0.000,2.673,9.552,0.381,-1.681,16.227,0.000,2.642,9.688,0.320,0.000,0.000,0.000,0.000,6,-0.003,0.009,784,1001,1256,939,2.655,9.522
427,0.000,-4.801,19.391,0.000,2.640,9.569,0.473,-1.681,16.227,-0.005,2.652,9.662,0.443,0.000,0.000,0.000,0.000,6,-0.002,0.010,783,1000,1260,940,2.655,9.522
428,0.000,-4.801,19.391,0.000,2.604,9.552,0.504,-1.681,16.227,0.005,2.664,9.655,0.565,0.000,0.000,0.000,0.000,6,-0.003,0.010,783,1000,1261,939,2.564,9.522
429,0.000,-4.801,19.391,-0.005,2.640,9.521,0.412,-1.681,16.227,0.016,2.673,9.621,0.381,0.000,0.000,0.000,0.000,6,-0.003,0.010,784,1001,1259,939,2.564,9.430
430,0.000,-4.779,19.391,0.005,2.680,9.485,0.443,-1.681,16.227,0.000,2.656,9.631,0.412,0.000,0.000,0.000,0.000,6,-0.003,0.010,783,1000,1255,940,2.655,9.522
431,0.000,-4.779,19.391,0.016,2.623,9.509,0.504,-1.681,16.227,-0.005,2.623,9.691,0.443,0.000,0.000,0.000,0.000,6,-0.003,0.010,785,1000,1254,941,2.564,9.522
432,0.000,-4.779,19.391,0.000,2.632,9.576,0.473,-1.681,16.227,0.000,2.618,9.736,0.443,0.000,0.000,0.000,0.000,6,-0.003,0.009,784,1002,1260,939,2.564,9.522
433,0.000,-4.779,19.391,0.000,2.721,9.525,0.412,-1.681,16.227,0.005,2.649,9.686,0.443,0.000,0.000,0.000,0.000,6,-0.003,0.010,784,1001,1263,939,2.564,9.522
434,0.000,-4.779,19.391,-0.005,2.635,9.432,0.320,-1.681,16.227,0.005,2.661,9.652,0.320,0.000,0.000,0.000,0.000,6,-0.002,0.010,783,1001,1259,940,2.655,9.430
435,0.000,-4.757,19.391,0.005,2.623,9.473,0.351,-1.681,16.227,-0.005,2.618,9.676,0.412,0.000,0.000,0.000,0.000,6,-0.002,0.010,783,1001,1257,940,2.564,9.430
436,0.000,-4.757,19.391,-0.005,2.704,9.497,0.412,-1.681,16.227,0.000,2.585,9.660,0.504,0.000,0.000,0.000,0.000,6,-0.002,0.010,782,1001,1259,939,2.564,9.522
437,0.000,-4.757,19.391,-0.005,2.721,9.509,0.473,-1.681,16.227,0.000,2.565,9.662,0.351,0.000,0.000,0.000,0.000,6,-0.002,0.010,784,1000,1259,940,2.655,9.522
438,0.000,-4.735,19.391,0.000,2.678,9.535,0.534,-1.703,16.227,0.000,2.618,9.643,0.381,0.000,0.000,0.000,0.000,6,-0.002,0.011,783,1001,1260,943,2.564,9.430
439,0.000,-4.735,19.391,0.005,2.613,9.528,0.351,-1.703,16.227,0.000,2.613,9.600,0.473,0.000,0.000,0.000,0.000,6,-0.002,0.010,784,1001,1260,939,2.564,9.430
440,0.000,-4.735,19.391,0.000,2.630,9.499,0.443,-1.703,16.227,-0.016,2.537,9.652,0.351,0.000,0.000,0.000,0.000,6,-0.002,0.010,783,1001,1259,937,2.655,9.430
441,0.000,-4.735,19.391,0.000,2.695,9.499,0.534,-1.703,16.227,0.016,2.582,9.712,0.351,0.000,0.000,0.000,0.000,6,-0.002,0.009,783,1001,1260,937,2.655,9.430
442,0.000,-4.713,19.391,0.000,2.716,9.528,0.351,-1.703,16.227,0.000,2.618,9.695,0.473,0.000,0.000,0.000,0.000,6,-0.002,0.010,784,998,1260,939,2.655,9.522
443,0.000,-4.713,19.391,0.000,2.661,9.492,0.290,-1.725,16.227,0.005,2.597,9.655,0.595,0.000,0.000,0.000,0.000,6,-0.002,0.011,783,1001,1260,940,2.564,9.522
444,0.000,-4.713,19.391,-0.016,2.671,9.494,0.443,-1.725,16.227,0.000,2.556,9.628,0.626,0.000,0.000,0.000,0.000,6,-0.002,0.010,783,1002,1260,938,2.564,9.430
445,0.000,-4.713,19.391,0.000,2.661,9.468,0.534,-1.725,16.227,0.000,2.580,9.621,0.534,0.000,0.000,0.000,0.000,6,-0.002,0.010,784,1001,1261,938,2.655,9.430
446,0.000,-4.691,19.391,0.005,2.652,9.461,0.595,-1.725,16.227,0.000,2.570,9.621,0.473,0.000,0.000,0.000,0.000,6,-0.003,0.010,782,1001,1261,940,2.655,9.522
447,0.000,-4.691,19.391,0.000,2.673,9.514,0.473,-1.747,16.227,0.005,2.518,9.648,0.443,0.000,0.000,0.000,0.000,6,-0.001,0.010,784,1002,1261,940,2.655,9.430
448,0.000,-4.691,19.391,0.000,2.630,9.497,0.443,-1.747,16.227,-0.005,2.508,9.657,0.443,0.000,0.000,0.000,0.000,6,-0.001,0.010,784,1002,1261,939,2.655,9.430
449,0.000,-4.691,19.391,0.016,2.707,9.516,0.351,-1.769,16.227,0.000,2.525,9.607,0.504,0.000,0.000,0.000,0.000,6,-0.001,0.010,784,1002,1261,940,2.655,9.430
450,0.000,-4.691,19.391,0.005,2.721,9.487,0.320,-1.769,16.227,0.000,2.551,9.585,0.534,0.000,0.000,0.000,0.000,6,-0.004,0.010,783,1002,1261,940,2.564,9.430
451,0.000,-4.669,19.391,0.005,2.661,9.446,0.381,-1.769,16.227,0.000,2.573,9.631,0.412,0.000,0.000,0.000,0.000,6,-0.002,0.010,784,1002,1261,939,2.655,9.430
452,0.000,-4.669,19.391,0.005,2.637,9.475,0.443,-1.769,16.227,0.000,2.568,9.638,0.320,0.000,0.000,0.000,0.000,6,-0.001,0.010,784,1002,1261,940,2.564,9.430
453,0.000,-4.669,19.391,0.005,2.620,9.490,0.290,-1.791,16.227,0.000,2.527,9.590,0.290,0.000,0.000,0.000,0.000,6,-0.001,0.010,784,1002,1261,940,2.655,9.430
454,0.000,-4.669,19.391,-0.005,2.690,9.525,0.351,-1.791,16.227,0.000,2.510,9.607,0.443,0.000,0.000,0.000,0.000,6,-0.002,0.010,783,1003,1262,940,2.655,9.430
455,0.000,-4.669,19.391,0.000,2.688,9.514,0.443,-1.791,16.227,0.005,2.525,9.621,0.504,0.000,0.000,0.000,0.000,6,-0.002,0.010,784,1002,1262,940,2.655,9.430
456,0.000,-4.647,19.391,0.005,2.620,9.487,0.412,-1.813,16.227,0.005,2.544,9.595,0.412,0.000,0.000,0.000,0.000,6,-0.002,0.010,784,1002,1262,940,2.564,9.430
457,0.000,-4.647,19.391,0.005,2.661,9.482,0.381,-1.813,16.227,-0.005,2.537,9.600,0.443,0.000,0.000,0.000,0.000,6,-0.002,0.010,784,1002,1262,940,2.564,9.430
458,0.000,-4.647,19.391,0.000,2.683,9.506,0.412,-1.813,16.227,0.000,2.580,9.609,0.504,0.000,0.000,0.000,0.000,6,-0.002,0.010,787,1002,1261,940,2.655,9.522
459,0.000,-4.647,19.391,-0.005,2.644,9.475,0.443,-1.813,16.227,-0.005,2.609,9.628,0.412,0.000,0.000,0.000,0.000,6,-0.002,0.010,784,1002,1262,940,2.655,9.430
460,0.000,-4.647,19.391,0.000,2.630,9.437,0.412,-1.813,16.227,-0.005,2.522,9.624,0.381,0.000,0.000,0.000,0.000,6,-0.002,0.009,783,1002,1263,940,2.564,9.430
461,0.000,-4.647,19.391,0.016,2.652,9.454,0.320,-1.835,16.227,0.000,2.501,9.604,0.381,0.000,0.000,0.000,0.000,6,-0.002,0.010,783,1002,1261,940,2.655,9.430
462,0.000,-4.625,19.391,-0.005,2.709,9.454,0.320,-1.835,16.227,0.000,2.561,9.602,0.534,0.000,0.000,0.000,0.000,6,-0.002,0.010,784,1002,1262,940,2.655,9.430
463,0.000,-4.625,19.391,-0.005,2.704,9.446,0.412,-1.835,16.227,0.000,2.544,9.604,0.443,0.000,0.000,0.000,0.000,6,-0.002,0.010,788,1002,1263,940,2.564,9.430
464,0.000,-4.625,19.391,0.005,2.661,9.418,0.381,-1.835,16.227,0.000,2.577,9.612,0.320,0.000,0.000,0.000,0.000,6,-0.002,0.010,784,1003,1263,941,2.564,9.430
465,0.000,-4.625,19.391,-0.016,2.599,9.411,0.412,-1.835,16.227,0.000,2.618,9.614,0.381,0.000,0.000,0.000,0.000,6,-0.002,0.010,783,1003,1262,941,2.564,9.430
466,0.000,-4.625,19.391,0.000,2.690,9.494,0.534,-1.835,16.227,0.000,2.577,9.616,0.412,0.000,0.000,0.000,0.000,6,-0.002,0.010,784,1003,1264,940,2.655,9.430
467,0.000,-4.603,19.391,0.000,2.716,9.530,0.504,-1.857,16.227,0.005,2.513,9.657,0.351,0.000,0.000,0.000,0.000,6,-0.002,0.010,784,1002,1264,941,2.655,9.430
468,0.000,-4.603,19.391,0.016,2.582,9.458,0.412,-1.857,16.227,-0.005,2.498,9.636,0.290,0.000,0.000,0.000,0.000,6,-0.002,0.010,784,1003,1263,941,2.655,9.339
469,0.000,-4.603,19.391,0.000,2.587,9.446,0.381,-1.857,16.227,0.005,2.582,9.602,0.320,0.000,0.000,0.000,0.000,6,-0.002,0.010,784,1003,1258,942,2.564,9.339
470,0.000,-4.603,19.391,0.000,2.673,9.497,0.290,-1.857,16.227,-0.005,2.577,9.619,0.320,0.000,0.000,0.000,0.000,6,-0.002,0.010,785,1003,1260,942,2.655,9.430
471,0.000,-4.603,19.391,-0.005,2.707,9.518,0.320,-1.879,16.227,0.005,2.501,9.636,0.290,0.000,0.000,0.000,0.000,6,-0.002,0.010,784,1004,1263,941,2.655,9.522
472,0.000,-4.603,19.391,0.000,2.642,9.492,0.320,-1.879,16.227,0.000,2.513,9.616,0.259,0.000,0.000,0.000,0.000,6,-0.002,0.010,784,1003,1266,941,2.564,9.430
473,0.000,-4.603,19.391,0.000,2.558,9.423,0.137,-1.879,16.227,0.005,2.530,9.669,0.381,0.000,0.000,0.000,0.000,6,-0.002,0.010,784,1003,1264,941,2.564,9.430
474,0.000,-4.603,19.391,0.000,2.625,9.406,0.046,-1.901,16.227,0.000,2.510,9.672,0.351,0.000,0.000,0.000,0.000,6,-0.002,0.010,784,1003,1261,941,2.655,9.430
475,0.000,-4.603,19.391,0.005,2.735,9.434,0.198,-1.901,16.227,0.005,2.527,9.640,0.290,0.000,0.000,0.000,0.000,6,-0.002,0.010,783,1003,1264,940,2.655,9.430
476,0.000,-4.581,19.391,-0.005,2.690,9.456,0.351,-1.901,16.227,-0.005,2.546,9.643,0.290,0.000,0.000,0.000,0.000,6,-0.002,0.010,783,1002,1263,942,2.564,9.430
477,0.000,-4.581,19.391,0.005,2.656,9.487,0.473,-1.923,16.227,0.000,2.520,9.633,0.198,0.000,0.000,0.000,0.000,6,-0.002,0.010,783,1003,1264,944,2.472,9.339
478,0.000,-4.581,19.391,0.000,2.673,9.468,0.259,-1.923,16.227,0.005,2.532,9.607,0.198,0.000,0.000,0.000,0.000,6,-0.002,0.010,784,1003,1264,943,2.564,9.339
479,0.000,-4.581,19.391,0.005,2.671,9.437,0.137,-1.923,16.227,0.000,2.549,9.619,0.168,0.000,0.000,0.000,0.000,6,-0.001,0.010,784,1004,1264,936,2.655,9.430
480,0.000,-4.581,19.391,0.016,2.680,9.449,0.168,-1.923,16.227,0.000,2.489,9.652,0.107,0.000,0.000,0.000,0.000,6,-0.002,0.010,785,1004,1264,943,2.655,9.430
481,0.000,-4.559,19.391,-0.016,2.659,9.468,0.198,-1.945,16.227,0.000,2.520,9.593,0.290,0.000,0.000,0.000,0.000,6,-0.001,0.010,784,1007,1264,943,2.655,9.430
482,0.000,-4.559,19.391,0.000,2.654,9.451,0.198,-1.945,16.227,0.000,2.510,9.578,0.229,0.000,0.000,0.000,0.000,6,-0.002,0.011,783,1004,1265,943,2.655,9.430
483,0.000,-4.559,19.391,0.000,2.604,9.408,0.198,-1.945,16.227,0.000,2.527,9.621,0.076,0.000,0.000,0.000,0.000,6,-0.002,0.010,783,1004,1265,938,2.655,9.430
484,0.000,-4.559,19.391,-0.005,2.604,9.415,0.259,-1.945,16.227,-0.005,2.558,9.640,0.015,0.000,0.000,0.000,0.000,6,-0.002,0.010,783,1004,1265,938,2.655,9.430
485,0.000,-4.559,19.391,0.005,2.685,9.449,0.259,-1.945,16.227,0.000,2.510,9.643,0.076,0.000,0.000,0.000,0.000,6,-0.002,0.011,784,1004,1264,941,2.655,9.430
486,0.000,-4.559,19.391,-0.016,2.709,9.478,0.320,-1.967,16.227,0.000,2.501,9.626,0.168,0.000,-0.000,0.000,0.000,6,-0.001,0.010,784,1004,1265,940,2.655,9.430
487,0.000,-4.559,19.391,0.005,2.642,9.458,0.168,-1.967,16.227,-0.005,2.518,9.616,0.107,0.000,-0.001,0.000,0.000,6,-0.001,0.010,784,1003,1265,939,2.564,9.339
488,0.000,-4.559,19.391,-0.005,2.659,9.427,0.168,-1.967,16.227,0.000,2.534,9.597,0.229,0.000,-0.001,0.000,0.000,6,-0.001,0.010,784,1003,1265,940,2.564,9.339
489,0.000,-4.559,19.391,0.005,2.671,9.425,0.229,-1.967,16.227,0.000,2.532,9.616,0.259,0.000,-0.001,0.000,0.000,6,-0.002,0.011,783,1004,1265,940,2.655,9.430
490,0.000,-4.559,19.391,0.005,2.592,9.384,0.076,-1.989,16.227,0.005,2.489,9.638,0.000,0.000,-0.002,0.000,0.000,6,-0.002,0.010,784,1004,1265,940,2.655,9.430
491,0.000,-4.559,19.391,-0.005,2.632,9.415,0.000,-1.989,16.227,0.000,2.527,9.612,0.000,0.000,-0.002,0.000,0.000,6,-0.001,0.011,783,1003,1265,940,2.564,9.430
492,0.000,-4.537,19.391,-0.005,2.659,9.439,0.000,-1.989,16.227,0.000,2.592,9.597,0.046,0.000,-0.003,0.000,0.000,6,-0.001,0.010,784,1004,1265,939,2.655,9.339
493,0.000,-4.537,19.391,0.000,2.606,9.437,0.000,-1.989,16.227,-0.005,2.530,9.638,0.168,0.000,-0.003,0.000,0.000,6,-0.003,0.011,783,1004,1265,939,2.655,9.339
494,0.000,-4.559,19.391,0.000,2.565,9.391,0.000,-1.989,16.227,-0.005,2.482,9.672,0.168,0.000,-0.004,0.000,0.000,6,-0.001,0.010,783,1003,1265,939,2.564,9.339
495,0.000,-4.559,19.391,0.000,2.587,9.360,0.046,-2.011,16.227,-0.016,2.510,9.672,0.015,0.000,-0.004,0.000,0.000,6,-0.001,0.011,784,1004,1266,939,2.564,9.339
496,0.000,-4.559,19.391,-0.005,2.618,9.434,0.000,-2.011,16.227,0.005,2.563,9.657,-0.015,0.000,-0.005,0.000,0.000,6,-0.001,0.010,783,1004,1266,939,2.655,9.430
497,0.000,-4.559,19.391,0.000,2.652,9.439,-0.137,-2.011,16.227,0.000,2.532,9.636,-0.015,0.000,-0.005,0.000,0.000,6,-0.002,0.011,784,1004,1266,939,2.564,9.430
498,0.000,-4.537,19.391,0.000,2.728,9.406,-0.137,-2.011,16.227,0.000,2.467,9.657,-0.046,0.000,-0.005,0.000,0.000,6,-0.002,0.010,783,1003,1266,939,2.564,9.339
499,0.000,-4.537,19.391,-0.016,2.688,9.413,-0.015,-2.033,16.227,0.005,2.525,9.657,0.076,0.000,-0.005,0.000,0.000,6,-0.002,0.009,784,1003,1266,939,2.564,9.339
500,0.000,-4.537,19.391,0.005,2.630,9.396,-0.046,-2.033,16.227,-0.016,2.537,9.612,0.046,0.000,-0.003,0.000,0.000,6,-0.002,0.011,783,1003,1265,939,2.564,9.430
501,0.000,-4.537,19.391,0.005,2.649,9.394,-0.076,-2.033,16.227,-0.005,2.537,9.650,-0.046,0.000,-0.004,0.000,0.000,6,-0.002,0.010,784,1003,1266,939,2.564,9.430
502,0.000,-4.537,19.391,0.000,2.661,9.403,-0.046,-2.033,16.227,0.000,2.601,9.695,-0.046,0.000,-0.004,0.000,0.000,6,-0.002,0.011,783,1003,1267,939,2.655,9.339
503,0.000,-4.515,19.391,-0.016,2.647,9.420,-0.015,-2.033,16.227,0.000,2.611,9.679,-0.015,0.000,-0.005,0.000,0.000,6,-0.002,0.010,784,1000,1266,939,2.655,9.339
504,0.000,-4.515,19.391,0.005,2.642,9.442,-0.015,-2.033,16.227,0.000,2.530,9.660,-0.076,0.000,-0.005,0.000,0.000,6,-0.002,0.011,784,1003,1267,939,2.564,9.339
505,0.000,-4.515,19.391,0.016,2.673,9.427,0.000,-2.033,16.227,-0.016,2.494,9.676,-0.076,0.000,-0.006,0.000,0.000,6,-0.002,0.011,784,1003,1269,939,2.564,9.339
506,0.000,-4.515,19.391,0.000,2.678,9.399,0.000,-2.033,16.227,-0.005,2.546,9.667,0.000,0.000,-0.006,0.000,0.000,6,-0.002,0.011,783,1003,1269,939,2.655,9.339
507,0.000,-4.515,19.391,-0.005,2.671,9.358,-0.046,-2.033,16.227,-0.016,2.587,9.631,-0.015,0.000,-0.007,0.000,0.000,6,-0.002,0.010,783,1003,1264,940,2.564,9.339
508,0.000,-4.493,19.391,-0.005,2.683,9.370,-0.046,-2.033,16.227,-0.005,2.589,9.650,-0.046,0.000,-0.007,0.000,0.000,6,-0.002,0.011,784,1003,1262,940,2.564,9.430
509,0.000,-4.493,19.391,0.000,2.625,9.382,-0.168,-2.033,16.227,-0.016,2.558,9.693,-0.076,0.000,-0.008,0.000,0.000,6,-0.002,0.010,785,1003,1264,939,2.655,9.339
510,0.000,-4.493,19.391,0.005,2.604,9.384,-0.137,-2.033,16.227,0.005,2.541,9.736,-0.046,0.000,-0.007,0.000,0.000,6,-0.002,0.011,783,1003,1270,938,2.655,9.339
511,0.000,-4.493,19.391,-0.005,2.661,9.396,-0.046,-2.033,16.227,0.000,2.537,9.705,-0.046,0.000,-0.008,0.000,0.000,6,-0.001,0.011,783,1003,1268,940,2.655,9.339
512,0.000,-4.493,19.391,-0.005,2.659,9.384,-0.168,-2.054,16.227,-0.016,2.573,9.619,-0.198,0.000,-0.009,0.000,0.000,6,-0.002,0.011,783,1003,1265,940,2.655,9.339
513,0.000,-4.493,19.391,0.000,2.666,9.367,-0.076,-2.033,16.227,-0.005,2.561,9.676,-0.259,0.000,-0.009,0.000,0.000,6,-0.002,0.010,784,1002,1264,939,2.564,9.339
514,0.000,-4.472,19.391,0.000,2.726,9.413,0.000,-2.054,16.227,0.000,2.546,9.698,-0.229,0.000,-0.009,0.000,0.000,6,-0.002,0.011,782,1003,1267,937,2.564,9.339
515,0.000,-4.472,19.391,0.005,2.747,9.415,-0.015,-2.054,16.227,-0.005,2.563,9.672,-0.168,0.000,-0.009,0.000,0.000,6,-0.002,0.010,783,1006,1267,943,2.655,9.339
516,0.000,-4.450,19.391,0.000,2.685,9.372,-0.046,-2.054,16.227,0.005,2.613,9.657,-0.076,0.000,-0.009,0.000,0.000,6,-0.002,0.012,783,1003,1267,941,2.655,9.339
517,0.000,-4.450,19.391,0.005,2.644,9.367,-0.107,-2.033,16.227,-0.005,2.616,9.681,-0.076,0.000,-0.011,0.000,0.000,6,-0.002,0.010,784,1003,1267,938,2.655,9.339
518,0.000,-4.450,19.391,-0.016,2.668,9.396,-0.137,-2.033,16.227,0.000,2.568,9.698,-0.137,0.000,-0.011,0.000,0.000,6,-0.001,0.010,784,1003,1267,936,2.655,9.339
519,0.000,-4.450,19.391,0.000,2.743,9.463,-0.076,-2.033,16.227,-0.005,2.530,9.676,-0.198,0.000,-0.010,0.000,0.000,6,-0.002,0.010,785,1002,1267,943,2.747,9.339
520,0.000,-4.428,19.391,-0.005,2.762,9.456,-0.137,-2.033,16.227,0.000,2.553,9.669,-0.137,0.000,-0.010,0.000,0.000,6,-0.002,0.010,784,1002,1267,942,2.655,9.339
521,0.000,-4.428,19.391,-0.005,2.666,9.420,-0.137,-2.033,16.227,0.000,2.575,9.688,-0.137,0.000,-0.010,0.000,0.000,6,-0.001,0.012,783,1003,1267,938,2.564,9.339
522,0.000,-4.428,19.391,0.016,2.642,9.446,-0.076,-2.033,16.227,-0.005,2.604,9.669,0.000,0.000,-0.011,0.000,0.000,6,-0.002,0.010,784,1003,1267,937,2.655,9.339
523,0.000,-4.428,19.391,0.005,2.707,9.411,-0.137,-2.033,16.227,0.005,2.563,9.672,-0.137,0.000,-0.011,0.000,0.000,6,-0.002,0.010,784,1002,1267,937,2.655,9.430
524,0.000,-4.428,19.391,0.005,2.666,9.391,-0.137,-2.033,16.227,-0.005,2.525,9.710,-0.198,0.000,-0.011,0.000,0.000,6,-0.002,0.010,784,1003,1268,939,2.747,9.430
525,0.000,-4.406,19.391,0.016,2.676,9.418,-0.168,-2.033,16.227,-0.005,2.611,9.691,-0.168,0.000,-0.011,0.000,0.000,6,-0.000,0.010,784,1003,1267,938,2.655,9.339
526,0.000,-4.406,19.391,0.000,2.759,9.442,-0.229,-2.033,16.227,0.000,2.635,9.674,-0.229,0.000,-0.011,0.000,0.000,6,-0.001,0.010,784,1003,1268,939,2.564,9.430
527,0.000,-4.406,19.391,0.005,2.750,9.430,-0.229,-2.033,16.227,0.016,2.558,9.691,-0.168,0.000,-0.010,0.000,0.000,6,-0.004,0.010,783,1003,1268,939,2.655,9.339
528,0.000,-4.384,19.391,0.000,2.664,9.403,-0.259,-2.033,16.227,-0.005,2.604,9.640,-0.015,0.000,-0.009,0.000,0.000,6,-0.004,0.011,784,1003,1267,939,2.655,9.339
529,0.000,-4.384,19.391,-0.016,2.647,9.423,-0.351,-2.033,16.227,-0.005,2.620,9.624,-0.015,0.000,-0.010,0.000,0.000,6,-0.000,0.010,784,1002,1268,938,2.655,9.339
530,0.000,-4.384,19.391,0.000,2.709,9.451,-0.473,-2.033,16.227,0.000,2.611,9.695,-0.137,0.000,-0.010,0.000,0.000,6,-0.001,0.010,783,1003,1268,938,2.747,9.430
531,0.000,-4.384,19.391,-0.005,2.764,9.406,-0.381,-2.011,16.227,0.000,2.628,9.705,-0.229,0.000,-0.009,0.000,0.000,6,-0.002,0.010,785,1002,1267,938,2.747,9.430
532,0.000,-4.362,19.391,-0.016,2.774,9.379,-0.229,-2.011,16.227,0.000,2.618,9.664,-0.351,0.000,-0.009,0.000,0.000,6,-0.003,0.010,784,1003,1267,939,2.655,9.339
533,0.000,-4.362,19.391,0.000,2.743,9.411,-0.137,-2.011,16.227,-0.005,2.613,9.648,-0.381,0.000,-0.008,0.000,0.000,6,-0.001,0.010,783,1002,1267,939,2.564,9.339
534,0.000,-4.340,19.391,0.000,2.714,9.425,-0.229,-2.011,16.227,-0.005,2.625,9.662,-0.198,0.000,-0.008,0.000,0.000,6,-0.002,0.010,784,1003,1268,938,2.655,9.430
535,0.000,-4.340,19.391,0.005,2.716,9.446,-0.290,-1.989,16.227,-0.016,2.609,9.648,0.000,0.000,-0.008,0.000,0.000,6,-0.002,0.010,784,1003,1268,938,2.747,9.339
536,0.000,-4.340,19.391,0.000,2.731,9.444,-0.229,-1.989,16.227,-0.005,2.534,9.633,-0.198,0.000,-0.007,0.000,0.000,6,-0.001,0.010,785,1002,1268,938,2.747,9.339
537,0.000,-4.318,19.391,0.000,2.688,9.413,-0.259,-1.989,16.227,0.000,2.599,9.660,-0.229,0.000,-0.007,0.000,0.000,6,-0.002,0.010,784,1001,1268,939,2.655,9.339
538,0.000,-4.318,19.391,0.000,2.738,9.430,-0.229,-1.989,16.227,-0.005,2.647,9.655,-0.076,0.000,-0.007,0.000,0.000,6,-0.002,0.008,783,1003,1268,938,2.655,9.339
539,0.000,-4.318,19.391,0.005,2.805,9.478,-0.229,-1.989,16.227,0.000,2.620,9.643,-0.198,0.000,-0.004,0.000,0.000,6,-0.002,0.010,783,1003,1267,938,2.655,9.430
540,0.000,-4.296,19.391,0.000,2.779,9.451,-0.320,-1.989,16.227,0.000,2.625,9.695,-0.229,0.000,-0.003,0.000,0.000,6,-0.002,0.010,784,1003,1268,939,2.655,9.430
541,0.000,-4.296,19.391,0.005,2.740,9.420,-0.351,-1.967,16.227,0.005,2.613,9.703,-0.229,0.000,-0.003,0.000,0.000,6,-0.002,0.010,786,1003,1268,939,2.655,9.339
542,0.000,-4.274,19.391,0.000,2.740,9.478,-0.290,-1.967,16.227,0.000,2.654,9.672,-0.168,0.000,-0.002,0.000,0.000,6,-0.002,0.010,784,1001,1267,938,2.655,9.430
543,0.000,-4.274,19.391,0.000,2.759,9.475,-0.229,-1.967,16.227,0.005,2.702,9.640,-0.351,0.000,-0.002,0.000,0.000,6,-0.002,0.009,783,1003,1266,939,2.747,9.430
544,0.000,-4.274,19.391,-0.005,2.692,9.415,-0.259,-1.945,16.227,0.000,2.666,9.628,-0.381,0.000,-0.001,0.000,0.000,6,-0.002,0.010,783,1003,1269,938,2.747,9.430
545,0.000,-4.274,19.391,-0.005,2.688,9.403,-0.290,-1.945,16.227,0.000,2.604,9.676,-0.229,0.000,-0.000,0.000,0.000,6,-0.002,0.010,783,1003,1271,938,2.655,9.339
546,0.000,-4.274,19.391,0.005,2.702,9.451,-0.290,-1.945,16.227,0.005,2.623,9.722,-0.137,0.000,-0.000,0.000,0.000,6,-0.002,0.010,783,1003,1264,939,2.655,9.430
547,0.000,-4.252,19.391,0.000,2.721,9.456,-0.320,-1.945,16.227,-0.005,2.673,9.719,-0.076,0.000,0.000,0.000,0.000,6,-0.002,0.010,784,1004,1265,939,2.747,9.430
548,0.000,-4.252,19.391,0.000,2.752,9.430,-0.290,-1.923,16.227,-0.005,2.678,9.664,-0.076,0.000,0.000,0.000,0.000,6,-0.002,0.010,785,1003,1264,940,2.655,9.339
549,0.000,-4.252,19.391,0.000,2.790,9.456,-0.259,-1.923,16.227,0.000,2.637,9.652,-0.198,0.000,0.000,0.000,0.000,6,-0.002,0.010,784,1004,1270,938,2.655,9.339
550,0.000,-4.230,19.391,0.005,2.779,9.454,-0.168,-1.923,16.227,0.005,2.616,9.672,-0.381,0.000,0.000,0.000,0.000,6,-0.002,0.010,784,1004,1270,938,2.655,9.430
551,0.000,-4.230,19.391,0.000,2.745,9.468,-0.046,-1.923,16.227,0.000,2.623,9.672,-0.320,0.000,0.000,0.000,0.000,6,-0.002,0.010,784,1003,1266,939,2.655,9.430
552,0.000,-4.230,19.391,0.005,2.764,9.480,-0.015,-1.901,16.227,0.000,2.620,9.667,-0.259,0.000,0.000,0.000,0.000,6,-0.002,0.010,784,1003,1266,939,2.747,9.430
553,0.000,-4.208,19.391,-0.016,2.726,9.449,-0.259,-1.901,16.227,0.000,2.618,9.657,-0.259,0.000,0.000,0.000,0.000,6,-0.002,0.010,783,1003,1268,939,2.747,9.430
554,0.000,-4.208,19.391,0.000,2.726,9.449,-0.229,-1.901,16.227,0.000,2.647,9.643,-0.107,0.000,0.000,0.000,0.000,6,-0.002,0.010,784,1006,1268,941,2.747,9.430
555,0.000,-4.208,19.391,0.000,2.757,9.461,-0.107,-1.901,16.227,0.000,2.616,9.672,-0.046,0.000,0.000,0.000,0.000,6,-0.002,0.011,783,1003,1268,942,2.655,9.430
556,0.000,-4.208,19.391,-0.016,2.769,9.475,-0.137,-1.901,16.227,0.000,2.695,9.676,-0.137,0.000,0.000,0.000,0.000,6,-0.002,0.010,784,1003,1268,939,2.747,9.430
557,0.000,-4.186,19.391,0.000,2.781,9.473,-0.229,-1.879,16.227,0.000,2.668,9.674,-0.076,0.000,0.000,0.000,0.000,6,-0.001,0.010,784,1003,1268,934,2.655,9.430
558,0.000,-4.186,19.391,0.005,2.738,9.470,-0.320,-1.879,16.227,-0.016,2.611,9.703,0.000,0.000,0.000,0.000,0.000,6,-0.002,0.010,785,1003,1269,942,2.655,9.430
559,0.000,-4.186,19.391,0.005,2.755,9.458,-0.229,-1.879,16.227,0.000,2.735,9.672,0.015,0.000,-0.000,0.000,0.000,6,-0.002,0.010,784,1005,1268,943,2.747,9.430
560,0.000,-4.164,19.391,-0.005,2.788,9.463,-0.015,-1.857,16.227,0.000,2.755,9.628,-0.046,0.000,-0.000,0.000,0.000,6,-0.002,0.011,784,1003,1268,938,2.747,9.430
561,0.000,-4.164,19.391,-0.005,2.779,9.454,0.000,-1.835,16.227,0.005,2.659,9.657,-0.076,0.000,-0.002,0.000,0.000,6,-0.002,0.010,784,1003,1269,936,2.747,9.430
562,0.000,-4.164,19.391,-0.005,2.731,9.423,0.015,-1.835,16.227,0.016,2.668,9.693,-0.015,0.000,-0.002,0.000,0.000,6,-0.003,0.010,783,1003,1268,939,2.655,9.430
563,0.000,-4.142,19.391,-0.005,2.764,9.425,-0.015,-1.835,16.227,0.000,2.671,9.672,-0.168,0.000,-0.001,0.000,0.000,6,-0.002,0.010,785,1003,1268,939,2.747,9.430
564,0.000,-4.142,19.391,0.005,2.786,9.482,-0.015,-1.835,16.227,-0.016,2.661,9.676,-0.107,0.000,-0.001,0.000,0.000,6,-0.000,0.010,784,1003,1268,939,2.747,9.430
565,0.000,-4.142,19.391,0.005,2.740,9.463,-0.076,-1.813,16.227,-0.005,2.647,9.688,-0.137,0.000,-0.000,0.000,0.000,6,-0.001,0.010,783,1003,1268,938,2.747,9.430
566,0.000,-4.142,19.391,-0.005,2.711,9.437,-0.046,-1.813,16.227,0.005,2.623,9.672,-0.168,0.000,-0.000,0.000,0.000,6,-0.001,0.010,784,1003,1268,939,2.655,9.339
567,0.000,-4.142,19.391,0.005,2.798,9.468,0.000,-1.813,16.227,-0.005,2.654,9.636,0.000,0.000,-0.000,0.000,0.000,6,-0.004,0.010,784,1003,1268,939,2.747,9.339
568,0.000,-4.120,19.391,-0.005,2.826,9.446,0.000,-1.813,16.227,0.000,2.685,9.643,0.076,0.000,-0.000,0.000,0.000,6,-0.001,0.010,784,1004,1268,939,2.747,9.430
569,0.000,-4.120,19.391,0.005,2.740,9.434,-0.015,-1.791,16.227,0.016,2.652,9.681,0.076,0.000,-0.000,0.000,0.000,6,-0.000,0.010,784,1003,1268,939,2.655,9.430
570,0.000,-4.098,19.391,0.000,2.743,9.463,-0.046,-1.791,16.227,0.005,2.678,9.669,-0.046,0.000,-0.000,0.000,0.000,6,-0.002,0.010,785,1003,1268,938,2.655,9.430
571,0.000,-4.098,19.391,-0.005,2.836,9.461,-0.137,-1.791,16.227,0.000,2.685,9.626,-0.168,0.000,-0.000,0.000,0.000,6,-0.002,0.010,783,1004,1268,939,2.747,9.430
572,0.000,-4.098,19.391,0.000,2.807,9.437,-0.046,-1.791,16.227,-0.005,2.647,9.638,-0.015,0.000,-0.000,0.000,0.000,6,-0.001,0.010,784,1004,1268,939,2.747,9.430
573,0.000,-4.076,19.391,0.005,2.743,9.437,0.046,-1.769,16.227,-0.005,2.685,9.650,0.046,0.000,-0.000,0.000,0.000,6,-0.002,0.010,784,1003,1268,939,2.655,9.430
574,0.000,-4.076,19.391,0.000,2.774,9.406,0.046,-1.769,16.227,0.000,2.666,9.660,0.015,0.000,-0.000,0.000,0.000,6,-0.002,0.011,784,1004,1267,939,2.655,9.430
575,0.000,-4.076,19.391,-0.005,2.812,9.442,-0.015,-1.769,16.227,0.005,2.685,9.667,0.046,0.000,-0.001,0.000,0.000,6,-0.002,0.010,787,1004,1268,939,2.747,9.430
576,0.000,-4.054,19.391,-0.016,2.788,9.478,-0.015,-1.747,16.227,-0.005,2.676,9.619,0.107,0.000,-0.001,0.000,0.000,6,-0.002,0.010,784,1000,1269,939,2.747,9.430
577,0.000,-4.054,19.391,-0.005,2.788,9.463,-0.046,-1.747,16.227,-0.005,2.613,9.626,0.015,0.000,-0.001,0.000,0.000,6,-0.002,0.008,784,1003,1268,939,2.655,9.430
578,0.000,-4.054,19.391,0.000,2.774,9.461,0.046,-1.747,16.227,-0.005,2.635,9.660,-0.076,0.000,0.000,0.000,0.000,6,-0.002,0.010,783,1003,1268,938,2.747,9.339
579,0.000,-4.032,19.391,0.000,2.755,9.444,0.000,-1.747,16.227,0.000,2.692,9.664,-0.046,0.000,0.000,0.000,0.000,6,-0.002,0.010,784,1003,1268,939,2.747,9.430
580,0.000,-4.032,19.391,0.000,2.807,9.482,-0.076,-1.747,16.227,0.000,2.711,9.660,0.000,0.000,0.000,0.000,0.000,6,-0.002,0.010,783,1003,1269,939,2.747,9.430
581,0.000,-4.032,19.391,0.000,2.831,9.494,-0.076,-1.725,16.227,0.000,2.620,9.672,0.000,0.000,0.000,0.000,0.000,6,-0.002,0.010,784,1001,1267,939,2.747,9.430
582,0.000,-4.010,19.391,-0.005,2.829,9.444,-0.015,-1.725,16.227,-0.016,2.640,9.676,0.015,0.000,-0.000,0.000,0.000,6,-0.002,0.010,783,1003,1266,939,2.747,9.430
583,0.000,-4.010,19.391,-0.005,2.793,9.437,0.015,-1.725,16.227,0.000,2.779,9.667,0.046,0.000,0.000,0.000,0.000,6,-0.002,0.010,784,1003,1271,939,2.747,9.430
584,0.000,-4.010,19.391,0.005,2.752,9.451,0.107,-1.703,16.227,0.000,2.704,9.645,0.000,0.000,-0.000,0.000,0.000,6,-0.002,0.010,784,1004,1270,939,2.747,9.430
585,0.000,-3.988,19.391,-0.005,2.800,9.442,0.046,-1.703,16.227,0.016,2.628,9.612,0.000,0.000,0.000,0.000,0.000,6,-0.002,0.010,784,1004,1265,940,2.747,9.430
586,0.000,-3.988,19.391,0.000,2.838,9.430,-0.076,-1.703,16.227,-0.005,2.678,9.614,0.000,0.000,0.000,0.000,0.000,6,-0.002,0.010,784,1004,1264,940,2.747,9.430
587,0.000,-3.988,19.391,0.005,2.783,9.437,-0.015,-1.703,16.227,0.000,2.685,9.638,0.076,0.000,0.000,0.000,0.000,6,-0.002,0.010,785,1004,1270,938,2.747,9.430
588,0.000,-3.966,19.391,0.005,2.786,9.470,0.076,-1.703,16.227,-0.005,2.642,9.669,0.076,0.000,0.000,0.000,0.000,6,-0.002,0.010,784,1003,1270,938,2.747,9.430
589,0.000,-3.966,19.391,-0.005,2.824,9.456,0.015,-1.703,16.227,0.000,2.594,9.686,0.046,0.000,0.000,0.000,0.000,6,-0.002,0.010,783,1004,1270,939,2.747,9.430
590,0.000,-3.966,19.391,-0.005,2.836,9.454,0.076,-1.703,16.227,0.000,2.606,9.652,0.046,0.000,0.000,0.000,0.000,6,-0.002,0.010,784,1004,1266,940,2.838,9.430
591,0.000,-3.944,19.391,0.000,2.831,9.461,0.076,-1.703,16.227,0.000,2.661,9.669,0.198,0.000,0.000,0.000,0.000,6,-0.002,0.010,784,1004,1267,937,2.747,9.430
592,0.000,-3.944,19.391,0.016,2.802,9.458,0.015,-1.703,16.227,0.000,2.664,9.695,0.107,0.000,0.000,0.000,0.000,6,-0.002,0.010,783,1004,1267,938,2.747,9.430
593,0.000,-3.944,19.391,-0.005,2.817,9.523,0.076,-1.703,16.227,0.000,2.640,9.674,0.107,0.000,0.000,0.000,0.000,6,-0.002,0.010,784,1007,1267,942,2.747,9.430
594,0.000,-3.922,19.391,0.005,2.779,9.470,0.229,-1.703,16.227,0.000,2.659,9.638,0.076,0.000,0.000,0.000,0.000,6,-0.003,0.012,784,1004,1267,939,2.747,9.430
595,0.000,-3.922,19.391,0.000,2.783,9.442,0.229,-1.681,16.227,0.005,2.695,9.633,0.000,0.000,-0.001,0.000,0.000,6,-0.002,0.010,784,1004,1268,935,2.747,9.430
596,0.000,-3.922,19.391,0.005,2.764,9.473,0.000,-1.681,16.227,-0.005,2.726,9.662,0.046,0.000,-0.000,0.000,0.000,6,-0.002,0.010,784,1004,1267,934,2.747,9.430
597,0.000,-3.922,19.391,-0.005,2.793,9.509,-0.107,-1.681,16.227,0.000,2.690,9.679,0.107,0.000,-0.000,0.000,0.000,6,-0.002,0.010,782,1004,1267,941,2.747,9.522
598,0.000,-3.922,19.391,-0.005,2.853,9.518,0.137,-1.659,16.227,0.000,2.649,9.650,0.198,0.000,0.000,0.000,0.000,6,-0.002,0.010,784,1007,1267,943,2.747,9.430
599,0.000,-3.922,19.391,0.005,2.745,9.473,0.320,-1.659,16.227,0.000,2.642,9.609,0.168,0.000,0.000,0.000,0.000,6,-0.002,0.011,784,1004,1267,939,2.747,9.430
600,0.000,-3.922,19.391,0.005,2.697,9.439,0.229,-1.659,16.227,0.016,2.659,9.619,0.000,0.000,-0.001,0.000,0.000,6,-0.002,0.010,784,1005,1268,936,2.747,9.430
601,0.000,-3.922,19.391,0.000,2.738,9.444,0.168,-1.659,16.227,0.000,2.623,9.667,0.046,0.000,-0.001,0.000,0.000,6,-0.003,0.010,784,1004,1267,939,2.747,9.430
602,0.000,-3.922,19.391,0.000,2.814,9.492,0.229,-1.659,16.227,0.016,2.623,9.660,0.107,0.000,-0.001,0.000,0.000,6,-0.002,0.010,784,1004,1267,939,2.838,9.430
603,0.000,-3.922,19.391,0.000,2.764,9.475,0.168,-1.659,16.227,0.000,2.668,9.628,0.046,0.000,-0.001,0.000,0.000,6,-0.001,0.010,784,1005,1267,939,2.655,9.430
604,0.000,-3.922,19.391,0.005,2.707,9.439,0.076,-1.659,16.227,0.000,2.690,9.600,0.046,0.000,-0.001,0.000,0.000,6,-0.002,0.010,784,1005,1267,938,2.655,9.430
605,0.000,-3.922,19.391,0.005,2.786,9.480,0.229,-1.659,16.227,-0.016,2.642,9.624,0.076,0.000,-0.001,0.000,0.000,6,-0.004,0.010,784,1005,1267,938,2.655,9.430
606,0.000,-3.900,19.391,0.005,2.846,9.485,0.259,-1.659,16.227,0.005,2.589,9.655,0.290,0.000,-0.001,0.000,0.000,6,-0.004,0.010,784,1004,1267,939,2.747,9.430
607,0.000,-3.900,19.391,0.000,2.817,9.446,0.198,-1.659,16.227,0.005,2.618,9.624,0.381,0.000,-0.002,0.000,0.000,6,-0.003,0.010,784,1004,1267,938,2.747,9.430
608,0.000,-3.900,19.391,0.005,2.731,9.470,0.076,-1.659,16.227,0.005,2.678,9.604,0.168,0.000,-0.002,0.000,0.000,6,-0.001,0.010,784,1005,1267,939,2.655,9.430
609,0.000,-3.900,19.391,0.000,2.752,9.480,0.168,-1.637,16.227,0.000,2.726,9.626,0.137,0.000,-0.002,0.000,0.000,6,-0.003,0.010,785,1004,1267,939,2.747,9.430
610,0.000,-3.900,19.391,0.000,2.788,9.444,0.198,-1.637,16.227,0.005,2.688,9.650,0.168,0.000,-0.001,0.000,0.000,6,-0.003,0.010,784,1005,1268,939,2.838,9.430
611,0.000,-3.900,19.391,-0.005,2.757,9.432,0.229,-1.637,16.227,0.005,2.628,9.667,0.198,0.000,-0.002,0.000,0.000,6,-0.003,0.010,784,1005,1267,939,2.747,9.430
612,0.000,-3.900,19.391,0.000,2.762,9.449,0.168,-1.637,16.227,0.000,2.623,9.645,0.107,0.000,-0.002,0.000,0.000,6,-0.002,0.010,784,1005,1267,938,2.655,9.430
613,0.000,-3.900,19.391,0.005,2.719,9.444,0.229,-1.637,16.227,-0.005,2.640,9.631,0.137,0.000,-0.002,0.000,0.000,6,-0.002,0.010,783,1005,1267,939,2.747,9.430
614,0.000,-3.900,19.391,-0.005,2.747,9.449,0.320,-1.637,16.227,0.000,2.668,9.667,0.168,0.000,-0.002,0.000,0.000,6,-0.003,0.010,787,1005,1267,938,2.747,9.430
615,0.000,-3.900,19.391,0.000,2.783,9.468,0.168,-1.637,16.227,-0.005,2.690,9.691,0.137,0.000,-0.001,0.000,0.000,6,-0.002,0.010,783,1000,1268,938,2.747,9.430
616,0.000,-3.900,19.391,0.005,2.771,9.497,0.198,-1.637,16.227,-0.027,2.673,9.662,0.229,0.000,-0.001,0.000,0.000,6,-0.002,0.008,784,1005,1268,938,2.747,9.430
617,0.000,-3.900,19.391,-0.005,2.807,9.499,0.351,-1.637,16.227,0.000,2.635,9.612,0.198,0.000,0.000,0.000,0.000,6,-0.002,0.010,784,1005,1267,938,2.655,9.430
618,0.000,-3.878,19.391,-0.005,2.769,9.470,0.351,-1.637,16.227,-0.005,2.628,9.636,0.137,0.000,0.000,0.000,0.000,6,-0.002,0.010,784,1005,1268,938,2.747,9.430
619,0.000,-3.878,19.391,0.005,2.752,9.444,0.381,-1.615,16.227,0.000,2.695,9.662,0.107,0.000,0.000,0.000,0.000,6,-0.002,0.010,781,1005,1268,938,2.747,9.430
620,0.000,-3.878,19.391,0.000,2.733,9.449,0.259,-1.615,16.227,-0.005,2.731,9.597,0.198,0.000,0.000,0.000,0.000,6,-0.002,0.010,784,1004,1266,939,2.747,9.430
621,0.000,-3.878,19.391,0.005,2.733,9.463,0.259,-1.615,16.227,0.000,2.659,9.609,0.351,0.000,0.000,0.000,0.000,6,-0.002,0.009,784,1005,1266,939,2.747,9.430
622,0.000,-3.900,19.391,0.000,2.767,9.454,0.290,-1.615,16.227,0.000,2.587,9.679,0.351,0.000,0.000,0.000,0.000,6,-0.002,0.009,784,1005,1271,938,2.747,9.430
623,0.000,-3.878,19.391,0.000,2.817,9.470,0.381,-1.615,16.227,-0.005,2.587,9.674,0.229,0.000,0.000,0.000,0.000,6,-0.002,0.010,784,1005,1270,938,2.747,9.430
624,0.000,-3.878,19.391,-0.005,2.771,9.480,0.290,-1.615,16.227,0.000,2.599,9.643,0.107,0.000,0.000,0.000,0.000,6,-0.002,0.009,784,1005,1270,938,2.655,9.430
625,0.000,-3.878,19.391,0.016,2.733,9.468,0.259,-1.637,16.227,0.005,2.652,9.645,0.198,0.000,0.000,0.000,0.000,6,-0.002,0.010,784,1005,1264,939,2.655,9.430
626,0.000,-3.878,19.391,-0.005,2.783,9.468,0.229,-1.615,16.227,-0.005,2.661,9.660,0.290,0.000,0.000,0.000,0.000,6,-0.002,0.010,784,1005,1270,938,2.747,9.430
627,0.000,-3.878,19.391,0.000,2.757,9.444,0.259,-1.615,16.227,-0.005,2.625,9.640,0.290,0.000,0.000,0.000,0.000,6,-0.002,0.010,784,1004,1271,938,2.747,9.430
628,0.000,-3.878,19.391,0.000,2.750,9.434,0.351,-1.615,16.227,0.016,2.640,9.631,0.412,0.000,0.000,0.000,0.000,6,-0.002,0.009,784,1005,1271,938,2.747,9.430
629,0.000,-3.878,19.391,0.000,2.695,9.454,0.351,-1.615,16.227,0.005,2.676,9.636,0.473,0.000,0.000,0.000,0.000,6,-0.002,0.009,784,1005,1266,939,2.655,9.430
630,0.000,-3.900,19.391,0.005,2.692,9.430,0.259,-1.615,16.227,0.005,2.685,9.657,0.381,0.000,0.000,0.000,0.000,6,-0.002,0.009,784,1005,1267,938,2.747,9.430
631,0.000,-3.900,19.391,0.000,2.745,9.413,0.290,-1.615,16.227,0.000,2.625,9.688,0.290,0.000,0.000,0.000,0.000,6,-0.002,0.009,783,1005,1269,937,2.747,9.430
632,0.000,-3.900,19.391,0.016,2.740,9.437,0.381,-1.615,16.227,0.005,2.587,9.672,0.320,0.000,0.000,0.000,0.000,6,-0.002,0.010,784,1004,1268,940,2.747,9.430
633,0.000,-3.900,19.391,0.000,2.747,9.499,0.504,-1.637,16.227,0.000,2.597,9.626,0.290,0.000,0.000,0.000,0.000,6,-0.002,0.011,784,1006,1269,939,2.655,9.430
634,0.000,-3.900,19.391,-0.005,2.747,9.473,0.381,-1.637,16.227,0.000,2.647,9.619,0.320,0.000,0.000,0.000,0.000,6,-0.002,0.010,784,1005,1269,938,2.655,9.430
635,0.000,-3.900,19.391,0.000,2.759,9.434,0.229,-1.637,16.227,0.005,2.649,9.624,0.320,0.000,0.000,0.000,0.000,6,-0.001,0.010,784,1006,1269,934,2.655,9.339
636,0.000,-3.900,19.391,-0.005,2.781,9.451,0.381,-1.637,16.227,0.000,2.644,9.660,0.198,0.000,0.000,0.000,0.000,6,-0.002,0.010,784,1006,1268,942,2.655,9.430
637,0.000,-3.878,19.391,0.005,2.793,9.430,0.473,-1.637,16.227,-0.005,2.630,9.676,0.137,0.000,0.000,0.000,0.000,6,-0.001,0.010,784,1009,1268,939,2.747,9.430
638,0.000,-3.878,19.391,0.000,2.762,9.406,0.412,-1.637,16.227,0.005,2.654,9.676,0.290,0.000,0.000,0.000,0.000,6,-0.001,0.011,783,1005,1268,937,2.747,9.430
639,0.000,-3.878,19.391,0.000,2.676,9.434,0.412,-1.637,16.227,-0.005,2.661,9.660,0.534,0.000,0.000,0.000,0.000,6,-0.002,0.010,784,1005,1269,936,2.747,9.430
640,0.000,-3.900,19.391,0.000,2.755,9.451,0.473,-1.615,16.227,0.000,2.678,9.652,0.504,0.000,0.000,0.000,0.000,6,-0.002,0.010,784,1005,1269,939,2.747,9.430
641,0.000,-3.878,19.391,-0.005,2.779,9.413,0.473,-1.615,16.227,0.000,2.664,9.631,0.443,0.000,0.000,0.000,0.000,6,-0.002,0.010,784,1005,1269,939,2.747,9.430
642,0.000,-3.878,19.391,0.000,2.762,9.418,0.473,-1.615,16.227,0.000,2.659,9.600,0.473,0.000,0.000,0.000,0.000,6,-0.001,0.010,784,1006,1269,939,2.747,9.339
643,0.000,-3.878,19.391,0.000,2.805,9.430,0.504,-1.615,16.227,0.005,2.613,9.624,0.443,0.000,0.000,0.000,0.000,6,-0.003,0.010,784,1006,1269,939,2.655,9.430
644,0.000,-3.878,19.391,0.000,2.781,9.442,0.534,-1.615,16.227,0.005,2.599,9.636,0.412,0.000,0.000,0.000,0.000,6,-0.003,0.010,784,1006,1269,939,2.747,9.430
645,0.000,-3.878,19.391,-0.005,2.771,9.458,0.565,-1.615,16.227,-0.016,2.618,9.607,0.259,0.000,0.000,0.000,0.000,6,-0.003,0.011,784,1005,1269,939,2.747,9.339
646,0.000,-3.878,19.391,0.005,2.733,9.451,0.381,-1.615,16.227,-0.005,2.628,9.604,0.320,0.000,0.000,0.000,0.000,6,-0.002,0.010,784,1005,1269,938,2.747,9.339
647,0.000,-3.878,19.391,-0.005,2.711,9.430,0.229,-1.615,16.227,0.005,2.630,9.616,0.381,0.000,0.000,0.000,0.000,6,-0.000,0.010,784,1005,1269,939,2.747,9.430
648,0.000,-3.878,19.391,0.005,2.769,9.449,0.320,-1.637,16.227,0.000,2.611,9.597,0.351,0.000,0.000,0.000,0.000,6,-0.000,0.010,784,1005,1269,939,2.747,9.430
649,0.000,-3.878,19.391,0.005,2.798,9.480,0.351,-1.637,16.227,0.000,2.609,9.628,0.412,0.000,0.000,0.000,0.000,6,-0.002,0.010,783,1006,1270,939,2.747,9.430
650,0.000,-3.878,19.391,0.000,2.757,9.487,0.320,-1.637,16.227,-0.005,2.568,9.655,0.412,0.000,0.000,0.000,0.000,6,-0.002,0.010,784,1005,1269,939,2.655,9.430
651,0.000,-3.878,19.391,0.000,2.747,9.487,0.504,-1.637,16.227,0.005,2.597,9.640,0.412,0.000,0.000,0.000,0.000,6,-0.002,0.010,783,1005,1269,939,2.655,9.430
652,0.000,-3.878,19.391,0.000,2.752,9.487,0.504,-1.637,16.227,0.000,2.637,9.633,0.412,0.000,0.000,0.000,0.000,6,-0.002,0.010,783,1005,1269,939,2.747,9.430
653,0.000,-3.878,19.391,-0.005,2.731,9.468,0.412,-1.637,16.227,0.000,2.613,9.626,0.412,0.000,0.000,0.000,0.000,6,-0.002,0.010,787,1005,1269,939,2.747,9.430
654,0.000,-3.878,19.391,0.005,2.783,9.437,0.351,-1.637,16.227,-0.005,2.599,9.650,0.320,0.000,0.000,0.000,0.000,6,-0.002,0.010,784,1001,1270,939,2.747,9.430
655,0.000,-3.878,19.391,-0.016,2.762,9.439,0.351,-1.659,16.227,-0.005,2.625,9.645,0.351,0.000,0.000,0.000,0.000,6,-0.001,0.009,783,1005,1269,939,2.747,9.430
656,0.000,-3.878,19.391,0.000,2.688,9.427,0.412,-1.659,16.227,0.000,2.601,9.657,0.381,0.000,0.000,0.000,0.000,6,-0.001,0.010,784,1005,1269,939,2.747,9.430
657,0.000,-3.878,19.391,-0.005,2.680,9.382,0.168,-1.659,16.227,0.000,2.570,9.667,0.381,0.000,0.000,0.000,0.000,6,-0.002,0.010,784,1005,1270,939,2.655,9.430
658,0.000,-3.900,19.391,0.005,2.688,9.387,0.046,-1.659,16.227,-0.005,2.628,9.638,0.443,0.000,0.000,0.000,0.000,6,-0.002,0.010,781,1005,1269,939,2.747,9.430
659,0.000,-3.900,19.391,0.000,2.774,9.466,0.320,-1.659,16.227,-0.005,2.611,9.679,0.351,0.000,0.000,0.000,0.000,6,-0.002,0.010,784,1002,1268,939,2.747,9.430
660,0.000,-3.900,19.391,-0.005,2.771,9.463,0.351,-1.659,16.227,0.000,2.589,9.679,0.412,0.000,0.000,0.000,0.000,6,-0.001,0.010,784,1004,1268,939,2.655,9.339
661,0.000,-3.900,19.391,0.005,2.659,9.367,0.351,-1.659,16.227,-0.005,2.628,9.621,0.443,0.000,0.000,0.000,0.000,6,-0.001,0.010,784,1004,1272,939,2.655,9.339
662,0.000,-3.900,19.391,-0.005,2.719,9.391,0.320,-1.681,16.227,-0.016,2.616,9.631,0.351,0.000,0.000,0.000,0.000,6,-0.002,0.010,784,1004,1270,939,2.655,9.339
663,0.000,-3.900,19.391,0.000,2.793,9.439,0.259,-1.681,16.227,0.000,2.589,9.669,0.290,0.000,0.000,0.000,0.000,6,-0.002,0.010,784,1005,1269,939,2.747,9.430
664,0.000,-3.900,19.391,-0.005,2.678,9.468,0.198,-1.681,16.227,0.000,2.575,9.650,0.290,0.000,0.000,0.000,0.000,6,-0.001,0.010,783,1004,1266,941,2.747,9.430
665,0.000,-3.900,19.391,0.000,2.723,9.454,0.259,-1.681,16.227,0.005,2.577,9.631,0.351,0.000,0.000,0.000,0.000,6,-0.002,0.010,783,1004,1273,938,2.655,9.339
666,0.000,-3.900,19.391,-0.005,2.757,9.401,0.443,-1.681,16.227,0.000,2.644,9.660,0.473,0.000,0.000,0.000,0.000,6,-0.001,0.010,783,1004,1272,938,2.655,9.339
667,0.000,-3.900,19.391,0.005,2.793,9.411,0.534,-1.681,16.227,0.000,2.664,9.648,0.320,0.000,0.000,0.000,0.000,6,-0.002,0.010,783,1004,1268,939,2.747,9.430
668,0.000,-3.900,19.391,0.016,2.738,9.413,0.443,-1.681,16.227,0.000,2.592,9.626,0.198,0.000,0.000,0.000,0.000,6,-0.001,0.010,784,1004,1268,938,2.655,9.430
669,0.000,-3.900,19.391,0.000,2.625,9.375,0.290,-1.681,16.227,-0.005,2.556,9.624,0.198,0.000,-0.000,0.000,0.000,6,-0.001,0.010,783,1004,1269,938,2.655,9.430
670,0.000,-3.900,19.391,0.016,2.723,9.451,0.229,-1.703,16.227,-0.005,2.561,9.624,0.412,0.000,-0.000,0.000,0.000,6,-0.001,0.010,783,1004,1269,940,2.747,9.339
671,0.000,-3.900,19.391,0.005,2.810,9.446,0.473,-1.703,16.227,0.000,2.606,9.657,0.381,0.000,-0.000,0.000,0.000,6,-0.001,0.010,783,1006,1269,943,2.747,9.339
672,0.000,-3.900,19.391,0.000,2.716,9.394,0.626,-1.703,16.227,0.000,2.623,9.655,0.259,0.000,-0.001,0.000,0.000,6,-0.001,0.011,784,1005,1269,937,2.655,9.339
673,0.000,-3.900,19.391,0.005,2.704,9.439,0.351,-1.703,16.227,-0.005,2.616,9.593,0.076,0.000,-0.002,0.000,0.000,6,-0.001,0.010,784,1004,1269,938,2.564,9.339
674,0.000,-3.900,19.391,0.000,2.740,9.468,0.290,-1.703,16.227,-0.005,2.618,9.616,0.137,0.000,-0.002,0.000,0.000,6,-0.001,0.010,784,1004,1269,936,2.655,9.430
675,0.000,-3.922,19.391,0.005,2.735,9.480,0.168,-1.703,16.227,0.000,2.618,9.681,0.290,0.000,-0.002,0.000,0.000,6,-0.001,0.010,784,1004,1269,942,2.747,9.430
676,0.000,-3.922,19.391,0.005,2.716,9.454,0.198,-1.703,16.227,0.000,2.640,9.693,0.290,0.000,-0.003,0.000,0.000,6,-0.001,0.010,784,1007,1269,941,2.655,9.339
677,0.000,-3.922,19.391,0.005,2.723,9.425,0.168,-1.703,16.227,0.016,2.664,9.691,0.107,0.000,-0.003,0.000,0.000,6,-0.001,0.011,784,1005,1269,939,2.655,9.430
678,0.000,-3.922,19.391,0.005,2.716,9.442,0.198,-1.703,16.227,0.005,2.575,9.688,0.076,0.000,-0.004,0.000,0.000,6,-0.001,0.010,784,1004,1269,937,2.655,9.430
679,0.000,-3.922,19.391,-0.016,2.700,9.451,0.259,-1.703,16.227,-0.005,2.640,9.667,0.229,0.000,-0.004,0.000,0.000,6,-0.001,0.010,784,1004,1268,941,2.655,9.430
680,0.000,-3.922,19.391,0.000,2.704,9.444,0.351,-1.703,16.227,0.000,2.616,9.710,0.229,0.000,-0.003,0.000,0.000,6,-0.000,0.010,784,1004,1269,940,2.655,9.430
681,0.000,-3.922,19.391,0.005,2.738,9.466,0.259,-1.703,16.227,0.000,2.637,9.705,0.076,0.000,-0.002,0.000,0.000,6,-0.000,0.010,784,1005,1269,939,2.655,9.339
682,0.000,-3.922,19.391,0.000,2.709,9.446,0.168,-1.703,16.227,0.000,2.611,9.660,0.198,0.000,-0.003,0.000,0.000,6,-0.002,0.010,784,1004,1268,939,2.655,9.430
683,0.000,-3.944,19.391,0.016,2.649,9.430,0.290,-1.703,16.227,0.016,2.611,9.640,0.198,0.000,-0.002,0.000,0.000,6,-0.003,0.010,784,1005,1269,939,2.655,9.430
684,0.000,-3.944,19.391,-0.005,2.707,9.442,0.290,-1.703,16.227,0.000,2.649,9.628,0.198,0.000,-0.002,0.000,0.000,6,-0.003,0.010,784,1004,1268,940,2.655,9.430
685,0.000,-3.944,19.391,-0.005,2.719,9.406,0.015,-1.703,16.227,0.000,2.577,9.648,0.229,0.000,-0.001,0.000,0.000,6,-0.000,0.010,783,1004,1268,939,2.655,9.430
686,0.000,-3.944,19.391,0.000,2.690,9.418,0.015,-1.725,16.227,-0.016,2.587,9.652,0.229,0.000,-0.001,0.000,0.000,6,-0.002,0.010,783,1004,1267,940,2.655,9.430
687,0.000,-3.944,19.391,0.000,2.731,9.420,0.198,-1.725,16.227,-0.005,2.606,9.628,0.198,0.000,-0.000,0.000,0.000,6,-0.002,0.010,785,1004,1268,939,2.564,9.430
688,0.000,-3.944,19.391,-0.005,2.711,9.444,0.259,-1.725,16.227,0.000,2.613,9.626,0.046,0.000,-0.000,0.000,0.000,6,-0.002,0.010,784,1004,1268,939,2.655,9.430
689,0.000,-3.966,19.391,0.000,2.735,9.557,0.290,-1.725,16.227,0.005,2.647,9.652,0.168,0.000,0.000,0.000,0.000,6,-0.001,0.010,784,1004,1267,940,2.655,9.339
690,0.000,-3.966,19.391,0.000,2.692,9.518,0.351,-1.725,16.227,0.005,2.635,9.638,0.168,0.000,0.000,0.000,0.000,6,-0.001,0.010,784,1003,1267,939,2.655,9.339
691,0.000,-3.966,19.391,0.005,2.616,9.444,0.320,-1.725,16.227,-0.005,2.568,9.655,0.168,0.000,0.000,0.000,0.000,6,-0.001,0.010,784,1004,1266,939,2.655,9.339
692,0.000,-3.988,19.391,0.000,2.688,9.437,0.259,-1.725,16.227,0.000,2.570,9.667,0.168,0.000,0.000,0.000,0.000,6,-0.001,0.010,787,1004,1267,939,2.655,9.430
693,0.000,-3.988,19.391,0.000,2.714,9.406,0.046,-1.725,16.227,0.005,2.597,9.664,0.076,0.000,0.000,0.000,0.000,6,-0.001,0.010,784,1000,1267,939,2.655,9.522
694,0.000,-3.988,19.391,0.016,2.719,9.411,0.137,-1.725,16.227,-0.005,2.592,9.679,0.137,0.000,0.000,0.000,0.000,6,-0.001,0.009,784,1003,1266,940,2.655,9.430
695,0.000,-3.988,19.391,0.005,2.735,9.420,0.381,-1.747,16.227,-0.005,2.563,9.657,0.259,0.000,0.000,0.000,0.000,6,-0.001,0.010,784,1003,1266,939,2.564,9.430
696,0.000,-3.988,19.391,0.005,2.666,9.382,0.290,-1.747,16.227,0.000,2.518,9.660,0.198,0.000,0.000,0.000,0.000,6,-0.001,0.010,784,1004,1266,939,2.655,9.430
697,0.000,-3.988,19.391,-0.005,2.652,9.415,0.198,-1.747,16.227,-0.005,2.580,9.662,0.168,0.000,0.000,0.000,0.000,6,-0.001,0.010,782,1003,1266,939,2.655,9.339
698,0.000,-3.988,19.391,0.005,2.697,9.461,0.046,-1.747,16.227,0.000,2.594,9.657,0.137,0.000,0.000,0.000,0.000,6,-0.001,0.010,784,1002,1266,939,2.655,9.339
699,0.000,-4.010,19.391,0.000,2.711,9.521,0.000,-1.769,16.227,-0.005,2.568,9.679,0.076,0.000,0.000,0.000,0.000,6,-0.001,0.010,784,1004,1265,939,2.655,9.339
700,0.000,-4.010,19.391,0.005,2.764,9.490,0.107,-1.769,16.227,0.000,2.568,9.664,0.137,0.000,0.000,0.000,0.000,6,-0.001,0.010,784,1003,1269,939,2.655,9.339
701,0.000,-3.988,19.391,-0.005,2.735,9.451,0.076,-1.769,16.227,0.000,2.546,9.652,0.137,0.000,0.000,0.000,0.000,6,-0.001,0.009,784,1003,1265,939,2.564,9.339
702,0.000,-4.010,19.391,0.005,2.709,9.463,0.107,-1.769,16.227,0.005,2.609,9.648,0.137,0.000,0.000,0.000,0.000,6,-0.001,0.010,783,1004,1262,939,2.655,9.430
703,0.000,-4.010,19.391,-0.005,2.683,9.446,0.259,-1.769,16.227,0.000,2.623,9.667,0.259,0.000,0.000,0.000,0.000,6,-0.001,0.010,783,1004,1264,940,2.655,9.522
704,0.000,-4.010,19.391,0.005,2.666,9.449,0.320,-1.769,16.227,0.005,2.561,9.705,0.168,0.000,0.000,0.000,0.000,6,-0.001,0.010,783,1003,1268,939,2.747,9.430
705,0.000,-4.010,19.391,0.005,2.721,9.470,0.290,-1.791,16.227,0.000,2.582,9.676,0.168,0.000,0.000,0.000,0.000,6,-0.001,0.010,784,1003,1268,939,2.655,9.430
706,0.000,-4.010,19.391,0.000,2.697,9.502,0.198,-1.791,16.227,-0.016,2.537,9.674,0.076,0.000,0.000,0.000,0.000,6,-0.002,0.010,784,1004,1265,940,2.655,9.430
707,0.000,-4.032,19.391,-0.005,2.640,9.463,0.137,-1.791,16.227,0.000,2.599,9.674,0.168,0.000,0.000,0.000,0.000,6,-0.001,0.010,784,1004,1264,939,2.655,9.430
708,0.000,-4.032,19.391,0.005,2.688,9.444,0.076,-1.791,16.227,0.000,2.666,9.643,0.168,0.000,0.000,0.000,0.000,6,-0.001,0.010,784,1004,1265,938,2.655,9.430
709,0.000,-4.032,19.391,-0.005,2.733,9.473,0.046,-1.791,16.227,0.000,2.589,9.669,0.168,0.000,0.000,0.000,0.000,6,-0.001,0.010,783,1004,1265,938,2.655,9.430
710,0.000,-4.032,19.391,-0.005,2.750,9.470,0.137,-1.791,16.227,0.005,2.577,9.688,0.259,0.000,0.000,0.000,0.000,6,-0.002,0.010,784,1006,1264,942,2.655,9.430
711,0.000,-4.032,19.391,0.000,2.680,9.463,0.168,-1.791,16.227,0.000,2.565,9.648,0.229,0.000,0.000,0.000,0.000,6,-0.002,0.011,784,1004,1264,936,2.564,9.430
712,0.000,-4.032,19.391,0.000,2.656,9.463,0.107,-1.813,16.227,0.000,2.565,9.636,0.137,0.000,-0.000,0.000,0.000,6,-0.001,0.010,784,1003,1265,934,2.655,9.430
713,0.000,-4.032,19.391,-0.005,2.731,9.439,0.046,-1.813,16.227,0.000,2.582,9.650,0.000,0.000,-0.000,0.000,0.000,6,-0.001,0.010,783,1003,1264,936,2.655,9.430
714,0.000,-4.032,19.391,-0.005,2.786,9.442,0.107,-1.813,16.227,0.005,2.580,9.652,0.107,0.000,-0.000,0.000,0.000,6,-0.002,0.010,787,1003,1264,942,2.747,9.430
715,0.000,-4.032,19.391,0.000,2.733,9.473,0.107,-1.813,16.227,0.000,2.549,9.660,0.107,0.000,-0.001,0.000,0.000,6,-0.001,0.010,784,1006,1264,939,2.655,9.430
716,0.000,-4.032,19.391,0.005,2.711,9.466,0.046,-1.813,16.227,0.005,2.587,9.643,0.168,0.000,-0.001,0.000,0.000,6,-0.001,0.011,783,1003,1263,939,2.655,9.430
717,0.000,-4.032,19.391,0.005,2.738,9.425,0.000,-1.813,16.227,0.000,2.606,9.633,0.107,0.000,-0.002,0.000,0.000,6,-0.001,0.010,784,1004,1263,936,2.655,9.430
718,0.000,-4.032,19.391,-0.005,2.702,9.411,0.015,-1.813,16.227,0.000,2.553,9.650,-0.015,0.000,-0.003,0.000,0.000,6,-0.002,0.010,784,1004,1263,939,2.747,9.430
719,0.000,-4.032,19.391,0.000,2.726,9.451,0.000,-1.813,16.227,0.000,2.649,9.607,-0.046,0.000,-0.003,0.000,0.000,6,-0.000,0.010,784,1003,1263,939,2.655,9.430
720,0.000,-4.032,19.391,0.000,2.664,9.430,0.000,-1.813,16.227,-0.016,2.599,9.624,-0.046,0.000,-0.003,0.000,0.000,6,-0.000,0.010,784,1003,1263,938,2.655,9.430
721,0.000,-4.032,19.391,-0.005,2.683,9.444,0.076,-1.813,16.227,-0.005,2.546,9.676,0.000,0.000,-0.003,0.000,0.000,6,-0.002,0.011,784,1003,1263,938,2.655,9.339
722,0.000,-4.032,19.391,0.005,2.743,9.466,0.000,-1.813,16.227,0.000,2.592,9.648,0.168,0.000,-0.004,0.000,0.000,6,-0.002,0.010,784,1004,1263,939,2.655,9.339
723,0.000,-4.032,19.391,0.000,2.711,9.456,-0.046,-1.813,16.227,-0.005,2.616,9.597,0.000,0.000,-0.004,0.000,0.000,6,-0.003,0.011,784,1003,1263,939,2.655,9.430
724,0.000,-4.054,19.391,-0.005,2.683,9.461,0.046,-1.813,16.227,-0.005,2.597,9.621,0.015,0.000,-0.005,0.000,0.000,6,-0.000,0.010,784,1003,1263,939,2.655,9.430
725,0.000,-4.054,19.391,-0.005,2.649,9.454,0.015,-1.813,16.227,0.000,2.597,9.660,-0.046,0.000,-0.005,0.000,0.000,6,-0.000,0.011,784,1003,1262,939,2.655,9.430
726,0.000,-4.054,19.391,-0.005,2.702,9.442,0.046,-1.813,16.227,-0.005,2.628,9.631,0.000,0.000,-0.005,0.000,0.000,6,-0.002,0.011,785,1003,1263,939,2.655,9.430
727,0.000,-4.054,19.391,-0.016,2.738,9.466,0.137,-1.813,16.227,0.000,2.616,9.631,0.015,0.000,-0.006,0.000,0.000,6,-0.002,0.011,784,1003,1262,939,2.655,9.430
728,0.000,-4.054,19.391,-0.005,2.735,9.487,0.137,-1.813,16.227,-0.005,2.546,9.636,-0.015,0.000,-0.007,0.000,0.000,6,-0.001,0.010,784,1003,1262,939,2.655,9.430
729,0.000,-4.054,19.391,0.005,2.685,9.454,0.000,-1.835,16.227,-0.016,2.546,9.602,-0.076,0.000,-0.007,0.000,0.000,6,-0.001,0.011,784,1003,1262,939,2.564,9.430
730,0.000,-4.054,19.391,0.000,2.721,9.439,0.000,-1.835,16.227,-0.005,2.618,9.581,0.000,0.000,-0.007,0.000,0.000,6,-0.002,0.010,784,1003,1262,939,2.655,9.430
731,0.000,-4.054,19.391,-0.005,2.728,9.442,0.000,-1.813,16.227,0.016,2.623,9.602,-0.015,0.000,-0.007,0.000,0.000,6,-0.001,0.011,783,1003,1262,939,2.655,9.430
732,0.000,-4.054,19.391,-0.016,2.635,9.446,0.015,-1.813,16.227,-0.005,2.573,9.645,-0.107,0.000,-0.008,0.000,0.000,6,-0.002,0.011,784,998,1263,940,2.655,9.430
733,0.000,-4.076,19.391,0.016,2.683,9.463,0.137,-1.813,16.227,0.000,2.573,9.621,-0.198,0.000,-0.008,0.000,0.000,6,-0.002,0.009,783,1003,1262,939,2.655,9.430
734,0.000,-4.076,19.391,0.000,2.680,9.427,0.046,-1.835,16.227,0.000,2.575,9.597,-0.076,0.000,-0.007,0.000,0.000,6,-0.001,0.011,784,1003,1261,939,2.655,9.430
735,0.000,-4.076,19.391,0.000,2.735,9.458,0.076,-1.835,16.227,-0.005,2.553,9.633,0.015,0.000,-0.007,0.000,0.000,6,-0.001,0.011,784,1003,1262,939,2.655,9.430
736,0.000,-4.076,19.391,0.005,2.743,9.461,0.000,-1.835,16.227,-0.005,2.623,9.621,0.015,0.000,-0.008,0.000,0.000,6,-0.001,0.011,781,1003,1260,940,2.564,9.430
737,0.000,-4.076,19.391,0.000,2.673,9.420,0.000,-1.835,16.227,0.005,2.625,9.590,-0.015,0.000,-0.009,0.000,0.000,6,-0.001,0.010,784,1002,1259,940,2.655,9.430
738,0.000,-4.076,19.391,0.005,2.733,9.430,-0.015,-1.813,16.227,-0.005,2.577,9.602,0.000,0.000,-0.008,0.000,0.000,6,-0.001,0.011,784,1003,1261,939,2.655,9.339
739,0.000,-4.054,19.391,0.000,2.764,9.427,0.000,-1.813,16.227,-0.005,2.606,9.643,0.000,0.000,-0.009,0.000,0.000,6,-0.001,0.010,784,1003,1264,940,2.655,9.430
740,0.000,-4.054,19.391,0.005,2.719,9.427,0.076,-1.813,16.227,-0.005,2.616,9.655,0.000,0.000,-0.009,0.000,0.000,6,-0.002,0.010,784,1003,1258,940,2.655,9.430
741,0.000,-4.076,19.391,0.005,2.625,9.418,0.000,-1.813,16.227,-0.005,2.609,9.655,-0.015,0.000,-0.009,0.000,0.000,6,-0.002,0.010,784,1003,1257,941,2.655,9.339
742,0.000,-4.076,19.391,-0.005,2.673,9.430,-0.198,-1.835,16.227,-0.016,2.546,9.686,0.000,0.000,-0.008,0.000,0.000,6,-0.001,0.011,784,1003,1258,941,2.655,9.430
743,0.000,-4.076,19.391,0.005,2.790,9.485,-0.015,-1.835,16.227,-0.016,2.539,9.688,0.076,0.000,-0.009,0.000,0.000,6,-0.001,0.010,783,1003,1263,940,2.747,9.339
744,0.000,-4.076,19.391,0.000,2.690,9.454,0.046,-1.835,16.227,0.000,2.592,9.652,0.000,0.000,-0.009,0.000,0.000,6,-0.001,0.011,784,1003,1260,940,2.655,9.339
745,0.000,-4.076,19.391,0.000,2.647,9.470,0.000,-1.835,16.227,0.000,2.606,9.595,-0.107,0.000,-0.009,0.000,0.000,6,-0.001,0.010,784,1003,1259,940,2.564,9.339
746,0.000,-4.076,19.391,-0.005,2.767,9.499,-0.015,-1.835,16.227,0.000,2.573,9.643,-0.229,0.000,-0.009,0.000,0.000,6,-0.002,0.010,784,1003,1261,938,2.655,9.430
747,0.000,-4.076,19.391,0.000,2.769,9.468,0.046,-1.835,16.227,-0.005,2.556,9.679,-0.076,0.000,-0.009,0.000,0.000,6,-0.001,0.010,784,1003,1261,939,2.747,9.430
748,0.000,-4.076,19.391,0.005,2.745,9.468,0.000,-1.835,16.227,0.000,2.623,9.619,0.000,0.000,-0.009,0.000,0.000,6,-0.002,0.010,782,1003,1261,938,2.655,9.430
749,0.000,-4.054,19.391,0.000,2.752,9.468,-0.076,-1.835,16.227,-0.005,2.642,9.600,0.000,0.000,-0.009,0.000,0.000,6,-0.002,0.010,784,1003,1260,937,2.564,9.430
750,0.000,-4.054,19.391,0.000,2.692,9.423,-0.076,-1.835,16.227,-0.005,2.539,9.638,0.000,0.000,-0.008,0.000,0.000,6,-0.002,0.010,783,1003,1260,936,2.747,9.430
751,0.000,-4.054,19.391,0.005,2.704,9.427,0.107,-1.835,16.227,0.000,2.498,9.679,0.000,0.000,-0.008,0.000,0.000,6,-0.002,0.010,784,1003,1261,936,2.747,9.430
752,0.000,-4.054,19.391,0.016,2.721,9.494,0.046,-1.857,16.227,-0.005,2.558,9.643,-0.046,0.000,-0.008,0.000,0.000,6,-0.002,0.010,784,1003,1260,941,2.655,9.430
753,0.000,-4.076,19.391,0.005,2.695,9.478,-0.076,-1.857,16.227,-0.005,2.618,9.636,-0.076,0.000,-0.008,0.000,0.000,6,-0.002,0.010,786,1003,1260,943,2.747,9.430
754,0.000,-4.076,19.391,0.016,2.769,9.470,-0.198,-1.857,16.227,-0.005,2.620,9.672,0.000,0.000,-0.008,0.000,0.000,6,-0.001,0.010,783,1007,1260,942,2.655,9.339
755,0.000,-4.054,19.391,0.005,2.762,9.485,-0.168,-1.857,16.227,-0.005,2.594,9.667,-0.137,0.000,-0.008,0.000,0.000,6,-0.001,0.011,784,1003,1259,937,2.655,9.339
756,0.000,-4.054,19.391,-0.005,2.659,9.475,-0.046,-1.857,16.227,0.000,2.609,9.650,-0.046,0.000,-0.008,0.000,0.000,6,-0.002,0.010,784,1003,1260,939,2.655,9.430
757,0.000,-4.076,19.391,-0.005,2.673,9.461,0.015,-1.857,16.227,0.000,2.630,9.688,0.000,0.000,-0.007,0.000,0.000,6,-0.003,0.010,784,1003,1259,940,2.655,9.430
758,0.000,-4.076,19.391,0.005,2.738,9.411,-0.015,-1.835,16.227,-0.005,2.623,9.719,-0.076,0.000,-0.007,0.000,0.000,6,-0.001,0.010,784,1003,1259,940,2.747,9.430
759,0.000,-4.076,19.391,-0.005,2.683,9.411,-0.168,-1.835,16.227,-0.005,2.620,9.672,0.000,0.000,-0.007,0.000,0.000,6,-0.001,0.010,784,1003,1259,940,2.747,9.430
760,0.000,-4.076,19.391,0.005,2.678,9.451,-0.107,-1.857,16.227,-0.005,2.537,9.621,-0.076,0.000,-0.007,0.000,0.000,6,-0.001,0.010,784,1003,1259,939,2.655,9.430
761,0.000,-4.076,19.391,0.000,2.688,9.454,-0.076,-1.857,16.227,0.000,2.601,9.645,0.015,0.000,-0.006,0.000,0.000,6,-0.004,0.010,784,1003,1259,940,2.655,9.430
762,0.000,-4.076,19.391,0.005,2.654,9.437,-0.015,-1.857,16.227,-0.016,2.620,9.650,0.000,0.000,-0.006,0.000,0.000,6,-0.001,0.010,784,1003,1259,940,2.655,9.339
763,0.000,-4.076,19.391,0.016,2.798,9.458,0.107,-1.835,16.227,-0.005,2.635,9.640,-0.076,0.000,-0.006,0.000,0.000,6,-0.000,0.010,784,1003,1259,940,2.655,9.339
764,0.000,-4.076,19.391,0.000,2.810,9.468,0.000,-1.835,16.227,-0.005,2.565,9.640,-0.076,0.000,-0.006,0.000,0.000,6,-0.000,0.010,783,1003,1258,940,2.655,9.430
765,0.000,-4.076,19.391,-0.005,2.676,9.444,-0.229,-1.857,16.227,-0.005,2.549,9.650,-0.168,0.000,-0.006,0.000,0.000,6,-0.002,0.010,785,1003,1258,940,2.655,9.430
766,0.000,-4.076,19.391,0.000,2.649,9.437,-0.168,-1.857,16.227,0.000,2.580,9.681,-0.107,0.000,-0.005,0.000,0.000,6,-0.002,0.010,784,1002,1259,940,2.655,9.430
767,0.000,-4.076,19.391,0.000,2.731,9.482,-0.076,-1.857,16.227,-0.005,2.589,9.698,-0.076,0.000,-0.005,0.000,0.000,6,-0.002,0.010,784,1003,1258,940,2.747,9.430
768,0.000,-4.076,19.391,0.016,2.735,9.492,-0.015,-1.857,16.227,-0.016,2.561,9.672,-0.046,0.000,-0.004,0.000,0.000,6,-0.002,0.010,784,1003,1258,939,2.747,9.430
769,0.000,-4.076,19.391,0.005,2.709,9.475,-0.046,-1.857,16.227,-0.005,2.577,9.657,-0.137,0.000,-0.004,0.000,0.000,6,-0.002,0.010,784,1003,1257,940,2.655,9.430
770,0.000,-4.076,19.391,0.000,2.721,9.466,-0.168,-1.857,16.227,-0.027,2.577,9.650,-0.168,0.000,-0.003,0.000,0.000,6,-0.002,0.010,780,1003,1259,940,2.564,9.430
771,0.000,-4.076,19.391,-0.005,2.688,9.451,-0.290,-1.857,16.227,-0.005,2.616,9.640,-0.229,0.000,-0.003,0.000,0.000,6,-0.002,0.010,784,999,1259,940,2.655,9.430
772,0.000,-4.076,19.391,-0.005,2.666,9.458,-0.259,-1.857,16.227,-0.005,2.676,9.643,-0.046,0.000,-0.003,0.000,0.000,6,-0.002,0.010,784,1003,1257,940,2.655,9.430
773,0.000,-4.076,19.391,0.005,2.652,9.487,-0.137,-1.857,16.227,0.000,2.544,9.674,-0.015,0.000,-0.003,0.000,0.000,6,-0.002,0.010,784,1003,1257,940,2.655,9.430
774,0.000,-4.098,19.391,-0.005,2.654,9.490,-0.198,-1.857,16.227,-0.005,2.553,9.660,-0.076,0.000,-0.003,0.000,0.000,6,-0.002,0.010,784,1003,1258,940,2.655,9.430
775,0.000,-4.098,19.391,0.005,2.659,9.478,-0.351,-1.857,16.227,0.000,2.620,9.638,-0.046,0.000,-0.003,0.000,0.000,6,-0.002,0.010,784,1003,1258,939,2.655,9.430
776,0.000,-4.098,19.391,0.005,2.704,9.499,-0.290,-1.857,16.227,-0.016,2.570,9.645,-0.198,0.000,-0.003,0.000,0.000,6,-0.001,0.010,784,1003,1256,939,2.655,9.430
777,0.000,-4.098,19.391,0.000,2.692,9.461,-0.168,-1.857,16.227,0.000,2.587,9.650,-0.168,0.000,-0.003,0.000,0.000,6,-0.002,0.010,784,1003,1257,940,2.564,9.430
778,0.000,-4.098,19.391,0.000,2.647,9.446,-0.198,-1.857,16.227,0.005,2.573,9.650,-0.076,0.000,-0.003,0.000,0.000,6,-0.001,0.010,784,1003,1260,939,2.655,9.430
779,0.000,-4.120,19.391,0.000,2.649,9.497,-0.168,-1.857,16.227,0.000,2.544,9.660,-0.076,0.000,-0.003,0.000,0.000,6,-0.002,0.010,784,1002,1256,939,2.655,9.430
780,0.000,-4.120,19.391,-0.005,2.678,9.468,-0.107,-1.879,16.227,0.000,2.628,9.657,-0.015,0.000,-0.003,0.000,0.000,6,-0.002,0.010,784,1002,1254,940,2.655,9.430
781,0.000,-4.120,19.391,-0.005,2.690,9.463,-0.168,-1.857,16.227,-0.005,2.625,9.650,0.000,0.000,-0.003,0.000,0.000,6,-0.002,0.010,784,1002,1256,940,2.655,9.430
782,0.000,-4.120,19.391,0.005,2.647,9.470,-0.168,-1.857,16.227,-0.005,2.582,9.621,-0.137,0.000,-0.003,0.000,0.000,6,-0.002,0.010,784,1002,1261,938,2.564,9.430
783,0.000,-4.142,19.391,0.000,2.625,9.439,-0.076,-1.857,16.227,0.005,2.585,9.612,-0.046,0.000,-0.003,0.000,0.000,6,-0.001,0.010,784,1002,1259,939,2.564,9.430
784,0.000,-4.142,19.391,-0.005,2.685,9.461,-0.015,-1.857,16.227,0.000,2.556,9.650,0.000,0.000,-0.003,0.000,0.000,6,-0.002,0.010,784,1002,1255,940,2.655,9.430
785,0.000,-4.142,19.391,0.005,2.697,9.523,-0.015,-1.879,16.227,0.000,2.570,9.638,0.000,0.000,-0.002,0.000,0.000,6,-0.002,0.010,784,1003,1256,939,2.655,9.430
786,0.000,-4.142,19.391,0.000,2.673,9.509,0.000,-1.879,16.227,0.005,2.589,9.652,-0.137,0.000,-0.003,0.000,0.000,6,-0.002,0.010,784,1002,1257,939,2.564,9.430
787,0.000,-4.142,19.391,-0.005,2.680,9.485,0.046,-1.879,16.227,-0.005,2.618,9.662,-0.198,0.000,-0.002,0.000,0.000,6,-0.002,0.010,786,1002,1257,942,2.564,9.430
788,0.000,-4.142,19.391,0.000,2.697,9.485,0.015,-1.857,16.227,-0.005,2.618,9.643,-0.076,0.000,-0.002,0.000,0.000,6,-0.002,0.010,784,1004,1256,942,2.655,9.430
789,0.000,-4.142,19.391,0.000,2.709,9.449,-0.107,-1.857,16.227,0.000,2.563,9.648,0.000,0.000,-0.002,0.000,0.000,6,-0.002,0.011,784,1002,1257,938,2.655,9.522
790,0.000,-4.142,19.391,0.005,2.747,9.478,-0.229,-1.879,16.227,0.005,2.551,9.633,0.015,0.000,-0.003,0.000,0.000,6,-0.001,0.010,784,1002,1257,936,2.655,9.430
791,0.000,-4.142,19.391,0.000,2.690,9.473,-0.198,-1.879,16.227,0.000,2.597,9.626,0.000,0.000,-0.003,0.000,0.000,6,-0.002,0.010,784,1002,1256,938,2.655,9.430
792,0.000,-4.164,19.391,0.005,2.616,9.434,-0.015,-1.879,16.227,0.000,2.599,9.657,-0.137,0.000,-0.003,0.000,0.000,6,-0.002,0.010,787,1003,1257,943,2.655,9.430
793,0.000,-4.164,19.391,0.000,2.697,9.468,0.076,-1.879,16.227,0.005,2.597,9.660,-0.107,0.000,-0.002,0.000,0.000,6,-0.002,0.010,784,1003,1256,937,2.655,9.430
794,0.000,-4.164,19.391,0.005,2.762,9.475,0.046,-1.879,16.227,-0.016,2.609,9.638,0.046,0.000,-0.002,0.000,0.000,6,-0.002,0.010,784,1002,1256,936,2.747,9.430
795,0.000,-4.142,19.391,0.000,2.745,9.470,0.046,-1.879,16.227,0.000,2.587,9.640,0.107,0.000,-0.003,0.000,0.000,6,-0.002,0.010,784,1002,1256,937,2.655,9.430
796,0.000,-4.164,19.391,0.000,2.620,9.466,-0.015,-1.879,16.227,0.000,2.551,9.640,0.000,0.000,-0.003,0.000,0.000,6,-0.002,0.010,784,1002,1256,939,2.564,9.430
797,0.000,-4.164,19.391,-0.005,2.611,9.451,0.000,-1.879,16.227,0.000,2.589,9.669,-0.046,0.000,-0.002,0.000,0.000,6,-0.000,0.010,784,1002,1256,938,2.655,9.430
798,0.000,-4.164,19.391,0.000,2.707,9.461,0.000,-1.879,16.227,0.005,2.640,9.667,-0.046,0.000,-0.002,0.000,0.000,6,-0.001,0.010,784,1002,1256,938,2.747,9.430
799,0.000,-4.164,19.391,0.005,2.723,9.451,0.000,-1.879,16.227,0.000,2.611,9.638,-0.076,0.000,-0.003,0.000,0.000,6,-0.001,0.010,784,1002,1256,938,2.655,9.430
800,0.000,-4.164,19.391,-0.005,2.735,9.461,0.000,-1.857,16.227,-0.005,2.585,9.619,0.000,0.000,-0.003,0.000,0.000,6,-0.003,0.010,784,1002,1257,938,2.564,9.430
801,0.000,-4.164,19.391,0.000,2.683,9.478,-0.046,-1.857,16.227,-0.016,2.618,9.626,0.198,0.000,-0.003,0.000,0.000,6,-0.000,0.010,784,1002,1255,938,2.564,9.430
802,0.000,-4.164,19.391,0.005,2.616,9.420,-0.137,-1.857,16.227,0.005,2.573,9.650,0.229,0.000,-0.003,0.000,0.000,6,-0.000,0.010,783,1002,1255,938,2.655,9.430
803,0.000,-4.164,19.391,0.000,2.692,9.408,-0.046,-1.857,16.227,0.016,2.594,9.640,0.046,0.000,-0.003,0.000,0.000,6,-0.002,0.010,784,1002,1256,938,2.655,9.430
804,0.000,-4.164,19.391,0.005,2.678,9.434,-0.015,-1.857,16.227,-0.005,2.587,9.612,-0.107,0.000,-0.003,0.000,0.000,6,-0.002,0.010,785,1002,1256,937,2.655,9.430
805,0.000,-4.164,19.391,0.000,2.671,9.442,0.000,-1.857,16.227,0.000,2.594,9.633,-0.076,0.000,-0.003,0.000,0.000,6,-0.002,0.010,784,1001,1256,938,2.655,9.430
806,0.000,-4.164,19.391,0.000,2.647,9.430,0.000,-1.857,16.227,-0.005,2.630,9.655,-0.046,0.000,-0.003,0.000,0.000,6,-0.002,0.010,784,1002,1255,937,2.564,9.339
807,0.000,-4.186,19.391,0.016,2.711,9.434,0.076,-1.857,16.227,0.000,2.620,9.657,0.076,0.000,-0.002,0.000,0.000,6,-0.002,0.010,784,1002,1255,937,2.655,9.339
808,0.000,-4.186,19.391,-0.005,2.678,9.415,-0.015,-1.857,16.227,0.000,2.609,9.645,-0.015,0.000,-0.002,0.000,0.000,6,-0.002,0.010,784,1002,1256,937,2.655,9.430
809,0.000,-4.186,19.391,0.000,2.644,9.403,-0.107,-1.857,16.227,0.000,2.609,9.626,-0.198,0.000,-0.003,0.000,0.000,6,-0.002,0.010,780,1002,1256,937,2.655,9.430
810,0.000,-4.186,19.391,0.000,2.702,9.468,0.000,-1.857,16.227,0.000,2.609,9.624,-0.198,0.000,-0.003,0.000,0.000,6,-0.002,0.011,784,997,1256,937,2.564,9.430
811,0.000,-4.186,19.391,0.000,2.683,9.470,0.076,-1.857,16.227,-0.016,2.620,9.595,-0.137,0.000,-0.003,0.000,0.000,6,-0.002,0.010,784,1002,1255,937,2.655,9.430
812,0.000,-4.186,19.391,0.000,2.692,9.446,0.000,-1.857,16.227,0.016,2.623,9.588,-0.015,0.000,-0.004,0.000,0.000,6,-0.002,0.010,784,1002,1255,937,2.655,9.339
813,0.000,-4.186,19.391,0.005,2.707,9.437,0.000,-1.835,16.227,-0.005,2.644,9.619,0.046,0.000,-0.004,0.000,0.000,6,-0.002,0.010,784,1001,1256,937,2.564,9.339
814,0.000,-4.186,19.391,-0.005,2.668,9.408,0.000,-1.835,16.227,0.005,2.623,9.626,0.015,0.000,-0.004,0.000,0.000,6,-0.002,0.010,782,1001,1256,937,2.655,9.430
815,0.000,-4.186,19.391,0.016,2.661,9.444,0.000,-1.835,16.227,0.000,2.592,9.614,-0.015,0.000,-0.003,0.000,0.000,6,-0.002,0.010,784,1002,1254,937,2.655,9.430
816,0.000,-4.186,19.391,0.005,2.683,9.485,-0.137,-1.835,16.227,0.000,2.609,9.604,-0.076,0.000,-0.003,0.000,0.000,6,-0.002,0.010,783,1001,1257,936,2.655,9.430
817,0.000,-4.186,19.391,-0.005,2.632,9.432,-0.198,-1.835,16.227,-0.005,2.601,9.612,0.046,0.000,-0.003,0.000,0.000,6,-0.002,0.010,784,1002,1258,937,2.655,9.430
818,0.000,-4.186,19.391,0.000,2.609,9.427,-0.046,-1.835,16.227,-0.016,2.539,9.631,0.046,0.000,-0.002,0.000,0.000,6,-0.002,0.010,784,1001,1254,936,2.655,9.339
819,0.000,-4.208,19.391,-0.005,2.671,9.461,0.076,-1.835,16.227,-0.005,2.568,9.631,0.000,0.000,-0.002,0.000,0.000,6,-0.002,0.010,784,1001,1251,937,2.655,9.430
820,0.000,-4.208,19.391,0.000,2.656,9.430,0.015,-1.835,16.227,-0.005,2.637,9.612,-0.015,0.000,-0.002,0.000,0.000,6,-0.002,0.010,784,1001,1252,937,2.655,9.430
821,0.000,-4.208,19.391,0.000,2.640,9.406,-0.046,-1.835,16.227,0.005,2.606,9.640,0.000,0.000,-0.002,0.000,0.000,6,-0.002,0.010,785,1002,1257,935,2.564,9.430
822,0.000,-4.208,19.391,0.000,2.661,9.384,-0.076,-1.835,16.227,-0.016,2.558,9.672,-0.015,0.000,-0.002,0.000,0.000,6,-0.002,0.010,784,1002,1254,937,2.564,9.339
823,0.000,-4.208,19.391,0.005,2.678,9.415,0.000,-1.835,16.227,-0.005,2.580,9.628,0.000,0.000,-0.002,0.000,0.000,6,-0.002,0.011,784,1001,1252,936,2.655,9.430
824,0.000,-4.208,19.391,0.000,2.652,9.437,-0.046,-1.835,16.227,-0.005,2.606,9.609,0.000,0.000,-0.003,0.000,0.000,6,-0.002,0.010,784,1001,1253,935,2.655,9.430
825,0.000,-4.208,19.391,-0.027,2.644,9.444,-0.229,-1.835,16.227,0.005,2.604,9.612,0.015,0.000,-0.003,0.000,0.000,6,-0.002,0.010,784,1001,1254,936,2.564,9.339
826,0.000,-4.230,19.391,0.000,2.700,9.454,-0.015,-1.835,16.227,0.000,2.587,9.624,0.137,0.000,-0.003,0.000,0.000,6,-0.002,0.010,786,1001,1254,939,2.655,9.339
827,0.000,-4.208,19.391,0.000,2.697,9.437,0.076,-1.835,16.227,0.000,2.568,9.640,0.046,0.000,-0.004,0.000,0.000,6,-0.002,0.011,784,1005,1254,938,2.655,9.339
828,0.000,-4.230,19.391,0.000,2.616,9.413,-0.046,-1.835,16.227,-0.005,2.568,9.624,0.015,0.000,-0.004,0.000,0.000,6,-0.002,0.012,784,1001,1254,936,2.564,9.430
829,0.000,-4.230,19.391,-0.005,2.613,9.394,-0.015,-1.835,16.227,-0.005,2.585,9.640,0.046,0.000,-0.007,0.000,0.000,6,-0.001,0.010,784,1001,1255,932,2.564,9.430
830,0.000,-4.230,19.391,0.000,2.711,9.415,0.046,-1.857,16.227,0.000,2.568,9.700,0.107,0.000,-0.007,0.000,0.000,6,-0.002,0.010,784,1002,1254,939,2.655,9.430
831,0.000,-4.230,19.391,0.000,2.688,9.399,0.107,-1.857,16.227,-0.005,2.544,9.683,0.107,0.000,-0.007,0.000,0.000,6,-0.002,0.011,787,1002,1254,939,2.655,9.430
832,0.000,-4.230,19.391,-0.005,2.635,9.420,0.000,-1.857,16.227,0.000,2.618,9.633,0.046,0.000,-0.007,0.000,0.000,6,-0.002,0.011,784,1005,1254,938,2.564,9.339
833,0.000,-4.230,19.391,0.000,2.647,9.439,-0.168,-1.857,16.227,0.016,2.685,9.660,0.015,0.000,-0.008,0.000,0.000,6,-0.003,0.010,784,1001,1254,934,2.564,9.339
834,0.000,-4.230,19.391,0.005,2.711,9.437,-0.076,-1.835,16.227,0.005,2.640,9.657,0.000,0.000,-0.007,0.000,0.000,6,-0.002,0.011,784,1001,1254,934,2.655,9.339
835,0.000,-4.230,19.391,0.005,2.711,9.454,0.000,-1.835,16.227,0.000,2.561,9.633,-0.015,0.000,-0.008,0.000,0.000,6,-0.003,0.011,784,1001,1254,935,2.655,9.339
836,0.000,-4.230,19.391,0.000,2.647,9.434,-0.015,-1.835,16.227,0.000,2.568,9.588,-0.168,0.000,-0.008,0.000,0.000,6,-0.001,0.011,784,1002,1254,935,2.564,9.339
837,0.000,-4.230,19.391,-0.005,2.632,9.401,-0.107,-1.857,16.227,-0.005,2.541,9.607,0.000,0.000,-0.009,0.000,0.000,6,-0.002,0.011,784,1001,1254,935,2.564,9.430
838,0.000,-4.230,19.391,0.000,2.666,9.437,-0.015,-1.857,16.227,-0.005,2.587,9.631,0.107,0.000,-0.009,0.000,0.000,6,-0.002,0.011,784,1001,1254,935,2.655,9.430
839,0.000,-4.230,19.391,0.005,2.685,9.439,-0.046,-1.857,16.227,-0.005,2.601,9.612,0.107,0.000,-0.010,0.000,0.000,6,-0.004,0.011,784,1002,1254,934,2.655,9.430
840,0.000,-4.230,19.391,0.005,2.721,9.446,-0.046,-1.857,16.227,-0.016,2.527,9.643,0.000,0.000,-0.010,0.000,0.000,6,-0.001,0.011,784,1001,1254,935,2.564,9.430
841,0.000,-4.230,19.391,0.000,2.692,9.451,-0.015,-1.857,16.227,0.000,2.570,9.672,-0.107,0.000,-0.011,0.000,0.000,6,-0.001,0.011,784,1001,1253,934,2.564,9.339
842,0.000,-4.230,19.391,0.000,2.642,9.449,-0.076,-1.857,16.227,-0.016,2.577,9.624,0.000,0.000,-0.011,0.000,0.000,6,-0.002,0.011,784,1001,1253,934,2.655,9.430
843,0.000,-4.230,19.391,0.000,2.728,9.475,-0.015,-1.857,16.227,0.000,2.527,9.676,0.137,0.000,-0.011,0.000,0.000,6,-0.003,0.011,784,1001,1253,934,2.655,9.430
844,0.000,-4.230,19.391,0.005,2.738,9.444,0.137,-1.879,16.227,-0.005,2.585,9.660,0.168,0.000,-0.011,0.000,0.000,6,-0.002,0.011,784,1001,1254,933,2.655,9.430
845,0.000,-4.230,19.391,0.005,2.692,9.434,0.107,-1.879,16.227,-0.005,2.601,9.616,0.137,0.000,-0.011,0.000,0.000,6,-0.002,0.010,784,1002,1253,934,2.655,9.430
846,0.000,-4.230,19.391,0.000,2.666,9.470,0.000,-1.879,16.227,-0.016,2.589,9.636,0.168,0.000,-0.011,0.000,0.000,6,-0.002,0.011,784,1001,1253,934,2.564,9.430
847,0.000,-4.230,19.391,0.000,2.640,9.466,-0.168,-1.879,16.227,-0.005,2.613,9.664,0.000,0.000,-0.011,0.000,0.000,6,-0.002,0.011,784,1001,1254,934,2.655,9.430
848,0.000,-4.230,19.391,-0.005,2.688,9.437,-0.107,-1.879,16.227,-0.005,2.563,9.681,0.000,0.000,-0.012,0.000,0.000,6,-0.002,0.011,782,1001,1254,934,2.655,9.430
849,0.000,-4.230,19.391,0.000,2.697,9.463,0.046,-1.879,16.227,-0.005,2.501,9.652,0.076,0.000,-0.012,0.000,0.000,6,-0.002,0.011,784,997,1254,934,2.655,9.430
850,0.000,-4.230,19.391,0.000,2.685,9.468,0.015,-1.879,16.227,-0.005,2.498,9.633,0.000,0.000,-0.012,0.000,0.000,6,-0.002,0.009,784,1001,1253,934,2.655,9.430
851,0.000,-4.230,19.391,-0.005,2.762,9.451,-0.015,-1.901,16.227,-0.016,2.484,9.643,-0.046,0.000,-0.011,0.000,0.000,6,-0.002,0.011,784,1001,1253,933,2.564,9.430
852,0.000,-4.230,19.391,0.000,2.810,9.451,0.000,-1.901,16.227,-0.005,2.539,9.614,-0.015,0.000,-0.012,0.000,0.000,6,-0.002,0.011,784,1002,1254,933,2.655,9.430
853,0.000,-4.208,19.391,0.000,2.680,9.420,0.015,-1.901,16.227,-0.005,2.563,9.607,0.000,0.000,-0.012,0.000,0.000,6,-0.002,0.011,782,1001,1253,933,2.655,9.430
854,0.000,-4.208,19.391,0.000,2.649,9.430,0.076,-1.901,16.227,-0.016,2.527,9.660,0.000,0.000,-0.012,0.000,0.000,6,-0.002,0.011,784,1002,1253,933,2.655,9.430
855,0.000,-4.208,19.391,-0.005,2.757,9.478,0.015,-1.923,16.227,-0.005,2.551,9.727,0.046,0.000,-0.012,0.000,0.000,6,-0.002,0.011,784,1001,1257,933,2.747,9.430
856,0.000,-4.208,19.391,0.000,2.721,9.473,-0.107,-1.923,16.227,-0.016,2.620,9.715,0.015,0.000,-0.013,0.000,0.000,6,-0.002,0.011,784,1002,1256,932,2.747,9.430
857,0.000,-4.208,19.391,0.016,2.659,9.446,-0.168,-1.923,16.227,-0.005,2.644,9.667,0.046,0.000,-0.013,0.000,0.000,6,-0.002,0.010,784,1001,1251,932,2.655,9.339
858,0.000,-4.208,19.391,0.000,2.683,9.456,-0.015,-1.923,16.227,0.000,2.491,9.686,-0.046,0.000,-0.013,0.000,0.000,6,-0.002,0.011,784,1002,1252,933,2.564,9.430
859,0.000,-4.208,19.391,0.005,2.755,9.468,0.000,-1.923,16.227,-0.005,2.474,9.686,-0.107,0.000,-0.013,0.000,0.000,6,-0.002,0.011,784,1001,1252,933,2.747,9.430
860,0.000,-4.208,19.391,-0.005,2.695,9.420,0.076,-1.945,16.227,-0.005,2.570,9.681,0.000,0.000,-0.013,0.000,0.000,6,-0.002,0.011,783,1001,1257,932,2.655,9.430
861,0.000,-4.208,19.391,-0.005,2.673,9.437,0.015,-1.945,16.227,-0.005,2.556,9.700,0.137,0.000,-0.013,0.000,0.000,6,-0.002,0.011,784,1001,1253,933,2.655,9.430
862,0.000,-4.208,19.391,0.000,2.723,9.494,-0.015,-1.945,16.227,-0.005,2.580,9.712,0.076,0.000,-0.014,0.000,0.000,6,-0.002,0.011,784,1001,1253,931,2.655,9.430
863,0.000,-4.208,19.391,-0.005,2.652,9.437,0.046,-1.945,16.227,-0.005,2.599,9.695,0.168,0.000,-0.014,0.000,0.000,6,-0.002,0.011,784,1001,1252,931,2.747,9.430
864,0.000,-4.208,19.391,-0.005,2.630,9.408,0.000,-1.945,16.227,-0.005,2.585,9.669,0.137,0.000,-0.014,0.000,0.000,6,-0.002,0.011,784,1001,1253,932,2.655,9.339
865,0.000,-4.208,19.391,0.005,2.714,9.456,0.076,-1.945,16.227,-0.005,2.565,9.691,0.000,0.000,-0.014,0.000,0.000,6,-0.002,0.011,787,1001,1253,934,2.655,9.430
866,0.000,-4.208,19.391,-0.005,2.707,9.494,0.076,-1.945,16.227,-0.005,2.570,9.722,0.000,0.000,-0.014,0.000,0.000,6,-0.003,0.011,784,1005,1253,934,2.655,9.430
867,0.000,-4.208,19.391,-0.005,2.652,9.497,0.137,-1.945,16.227,-0.005,2.573,9.700,0.046,0.000,-0.014,0.000,0.000,6,-0.002,0.012,784,1001,1253,929,2.564,9.430
868,0.000,-4.208,19.391,0.005,2.690,9.468,0.107,-1.945,16.227,0.000,2.570,9.679,0.076,0.000,-0.016,0.000,0.000,6,-0.002,0.011,784,1001,1254,932,2.564,9.339
869,0.000,-4.208,19.391,0.005,2.709,9.485,-0.015,-1.945,16.227,0.000,2.594,9.717,0.107,0.000,-0.016,0.000,0.000,6,-0.002,0.011,784,1001,1253,935,2.655,9.430
870,0.000,-4.208,19.391,-0.005,2.731,9.509,-0.015,-1.945,16.227,-0.005,2.589,9.686,-0.015,0.000,-0.016,0.000,0.000,6,-0.002,0.010,789,1001,1254,935,2.655,9.430
871,0.000,-4.208,19.391,0.000,2.702,9.490,0.000,-1.945,16.227,-0.016,2.580,9.648,0.000,0.000,-0.016,0.000,0.000,6,-0.002,0.010,784,999,1253,928,2.564,9.430
872,0.000,-4.208,19.391,0.016,2.668,9.490,0.000,-1.945,16.227,-0.005,2.568,9.693,0.015,0.000,-0.015,0.000,0.000,6,-0.003,0.010,784,1001,1253,931,2.655,9.430
873,0.000,-4.208,19.391,0.005,2.688,9.475,0.137,-1.967,16.227,-0.005,2.503,9.717,0.076,0.000,-0.015,0.000,0.000,6,-0.003,0.010,784,1001,1254,930,2.655,9.430
874,0.000,-4.208,19.391,0.016,2.726,9.475,0.076,-1.967,16.227,-0.016,2.544,9.736,0.015,0.000,-0.014,0.000,0.000,6,-0.003,0.011,784,1001,1253,931,2.655,9.430
875,0.000,-4.208,19.391,-0.005,2.666,9.466,0.046,-1.967,16.227,-0.005,2.623,9.707,0.015,0.000,-0.014,0.000,0.000,6,-0.002,0.010,786,1001,1254,931,2.655,9.430
876,0.000,-4.230,19.391,0.005,2.656,9.490,0.046,-1.967,16.227,-0.005,2.563,9.712,-0.015,0.000,-0.014,0.000,0.000,6,-0.003,0.011,784,1001,1254,930,2.655,9.430
877,0.000,-4.230,19.391,0.000,2.711,9.473,0.076,-1.967,16.227,0.000,2.518,9.746,0.046,0.000,-0.014,0.000,0.000,6,-0.003,0.010,784,1002,1254,930,2.655,9.430
878,0.000,-4.208,19.391,0.000,2.733,9.466,0.137,-1.989,16.227,-0.005,2.532,9.705,-0.015,0.000,-0.013,0.000,0.000,6,-0.003,0.011,784,1003,1254,930,2.655,9.430
879,0.000,-4.208,19.391,0.000,2.700,9.475,0.198,-1.989,16.227,-0.005,2.534,9.705,0.000,0.000,-0.014,0.000,0.000,6,-0.000,0.010,785,1001,1253,931,2.655,9.430
880,0.000,-4.208,19.391,0.000,2.688,9.463,0.076,-1.989,16.227,-0.016,2.534,9.695,0.015,0.000,-0.013,0.000,0.000,6,-0.000,0.010,784,1001,1254,930,2.655,9.430
881,0.000,-4.208,19.391,0.000,2.695,9.461,0.000,-2.011,16.227,0.000,2.520,9.712,0.076,0.000,-0.013,0.000,0.000,6,-0.002,0.010,784,1001,1254,930,2.655,9.430
882,0.000,-4.208,19.391,0.005,2.743,9.497,0.000,-2.011,16.227,-0.016,2.494,9.743,0.107,0.000,-0.012,0.000,0.000,6,-0.002,0.010,786,1001,1254,930,2.655,9.430
883,0.000,-4.208,19.391,0.000,2.726,9.475,0.198,-2.011,16.227,-0.016,2.546,9.770,0.000,0.000,-0.011,0.000,0.000,6,-0.002,0.010,785,1001,1254,930,2.655,9.430
884,0.000,-4.208,19.391,0.000,2.628,9.442,0.229,-2.011,16.227,-0.027,2.553,9.715,-0.015,0.000,-0.011,0.000,0.000,6,-0.002,0.010,785,1001,1254,930,2.655,9.430
885,0.000,-4.208,19.391,0.005,2.688,9.451,0.046,-2.033,16.227,-0.005,2.577,9.669,0.000,0.000,-0.010,0.000,0.000,6,-0.002,0.010,785,1001,1254,931,2.655,9.430
886,0.000,-4.208,19.391,0.000,2.781,9.439,0.015,-2.033,16.227,0.000,2.525,9.693,0.015,0.000,-0.010,0.000,0.000,6,-0.002,0.010,784,1001,1255,930,2.655,9.430
887,0.000,-4.208,19.391,-0.005,2.697,9.437,0.015,-2.033,16.227,-0.005,2.486,9.688,0.015,0.000,-0.009,0.000,0.000,6,-0.002,0.010,780,1001,1255,930,2.655,9.430
888,0.000,-4.208,19.391,0.005,2.637,9.458,0.015,-2.033,16.227,0.000,2.520,9.715,-0.046,0.000,-0.008,0.000,0.000,6,-0.002,0.010,784,996,1255,930,2.564,9.430
889,0.000,-4.208,19.391,-0.005,2.652,9.463,0.015,-2.054,16.227,-0.005,2.537,9.727,-0.046,0.000,-0.008,0.000,0.000,6,-0.001,0.011,785,1001,1254,930,2.655,9.430
890,0.000,-4.208,19.391,0.005,2.685,9.446,0.015,-2.054,16.227,0.000,2.537,9.691,0.046,0.000,-0.008,0.000,0.000,6,-0.002,0.009,785,1001,1254,930,2.747,9.430
891,0.000,-4.208,19.391,0.000,2.688,9.444,0.000,-2.054,16.227,-0.005,2.573,9.693,0.046,0.000,-0.007,0.000,0.000,6,-0.002,0.010,785,1001,1255,930,2.655,9.430
892,0.000,-4.208,19.391,0.000,2.668,9.461,0.076,-2.054,16.227,-0.005,2.553,9.686,0.137,0.000,-0.006,0.000,0.000,6,-0.002,0.010,782,1001,1254,930,2.564,9.430
893,0.000,-4.230,19.391,0.000,2.685,9.490,0.137,-2.054,16.227,-0.005,2.530,9.695,0.168,0.000,-0.005,0.000,0.000,6,-0.002,0.010,785,1002,1257,930,2.564,9.430
894,0.000,-4.230,19.391,0.000,2.707,9.492,0.137,-2.054,16.227,-0.005,2.568,9.741,0.000,0.000,-0.005,0.000,0.000,6,-0.002,0.010,785,1001,1257,929,2.655,9.430
895,0.000,-4.208,19.391,0.000,2.733,9.468,0.076,-2.054,16.227,0.005,2.534,9.743,-0.046,0.000,-0.005,0.000,0.000,6,-0.002,0.010,785,1001,1257,930,2.655,9.430
896,0.000,-4.208,19.391,0.005,2.719,9.485,0.107,-2.076,16.227,0.000,2.498,9.717,0.000,0.000,-0.005,0.000,0.000,6,-0.001,0.010,785,1001,1254,930,2.655,9.430
897,0.000,-4.208,19.391,0.000,2.685,9.470,0.198,-2.076,16.227,0.000,2.532,9.712,0.107,0.000,-0.004,0.000,0.000,6,-0.002,0.010,785,1001,1255,930,2.655,9.430
898,0.000,-4.208,19.391,-0.005,2.642,9.446,0.015,-2.076,16.227,0.000,2.534,9.703,0.168,0.000,-0.003,0.000,0.000,6,-0.002,0.009,785,1001,1256,930,2.655,9.430
899,0.000,-4.208,19.391,0.000,2.726,9.468,0.015,-2.076,16.227,0.000,2.527,9.717,0.107,0.000,-0.002,0.000,0.000,6,-0.002,0.010,785,1001,1257,929,2.655,9.430
900,0.000,-4.208,19.391,0.005,2.819,9.470,0.137,-2.098,16.227,-0.005,2.561,9.707,0.107,0.000,-0.002,0.000,0.000,6,-0.002,0.010,785,1000,1257,930,2.655,9.430
901,0.000,-4.208,19.391,-0.005,2.707,9.478,0.015,-2.076,16.227,0.000,2.606,9.652,0.137,0.000,-0.002,0.000,0.000,6,-0.002,0.010,785,1001,1254,929,2.655,9.430
902,0.000,-4.208,19.391,-0.005,2.630,9.439,0.000,-2.076,16.227,0.000,2.522,9.686,0.046,0.000,-0.001,0.000,0.000,6,-0.002,0.010,785,1001,1255,928,2.564,9.430
903,0.000,-4.208,19.391,0.005,2.728,9.466,0.107,-2.098,16.227,0.000,2.482,9.724,0.000,0.000,-0.002,0.000,0.000,6,-0.002,0.010,785,1001,1255,929,2.655,9.430
904,0.000,-4.208,19.391,0.000,2.752,9.463,0.137,-2.098,16.227,-0.005,2.530,9.688,0.046,0.000,-0.001,0.000,0.000,6,-0.002,0.010,789,1001,1255,932,2.747,9.430
905,0.000,-4.208,19.391,0.000,2.671,9.437,0.000,-2.098,16.227,0.000,2.503,9.679,0.107,0.000,-0.001,0.000,0.000,6,-0.002,0.010,785,1003,1255,933,2.655,9.430
906,0.000,-4.208,19.391,0.005,2.616,9.485,0.137,-2.120,16.227,0.005,2.525,9.693,0.198,0.000,-0.000,0.000,0.000,6,-0.002,0.010,785,1001,1255,926,2.564,9.430
907,0.000,-4.208,19.391,-0.005,2.666,9.461,0.198,-2.120,16.227,-0.005,2.534,9.683,0.168,0.000,-0.000,0.000,0.000,6,-0.001,0.010,785,1001,1255,926,2.655,9.430
908,0.000,-4.208,19.391,0.000,2.709,9.449,0.168,-2.120,16.227,0.000,2.515,9.672,0.046,0.000,-0.000,0.000,0.000,6,-0.002,0.010,785,1001,1254,934,2.747,9.430
909,0.000,-4.208,19.391,0.005,2.640,9.468,0.137,-2.120,16.227,0.000,2.549,9.698,0.046,0.000,-0.000,0.000,0.000,6,-0.002,0.010,789,1001,1255,933,2.655,9.430
910,0.000,-4.230,19.391,-0.005,2.676,9.485,0.168,-2.120,16.227,-0.005,2.532,9.695,0.107,0.000,-0.000,0.000,0.000,6,-0.002,0.010,785,1003,1255,929,2.564,9.430
911,0.000,-4.230,19.391,0.000,2.597,9.473,0.137,-2.120,16.227,0.000,2.527,9.672,0.168,0.000,-0.000,0.000,0.000,6,-0.002,0.010,784,1000,1255,928,2.655,9.430
912,0.000,-4.230,19.391,-0.005,2.654,9.502,0.168,-2.120,16.227,-0.005,2.541,9.681,0.259,0.000,-0.000,0.000,0.000,6,-0.003,0.010,785,1001,1255,930,2.655,9.430
913,0.000,-4.230,19.391,-0.016,2.750,9.504,0.137,-2.120,16.227,0.000,2.539,9.679,0.076,0.000,-0.000,0.000,0.000,6,-0.002,0.010,785,1000,1255,930,2.564,9.430
914,0.000,-4.230,19.391,0.000,2.719,9.482,0.259,-2.142,16.227,0.000,2.525,9.686,0.076,0.000,-0.000,0.000,0.000,6,-0.000,0.010,785,1001,1255,929,2.655,9.430
915,0.000,-4.230,19.391,0.000,2.685,9.451,0.351,-2.142,16.227,0.000,2.510,9.672,0.000,0.000,0.000,0.000,0.000,6,-0.002,0.010,785,1001,1255,930,2.564,9.430
916,0.000,-4.230,19.391,0.000,2.716,9.497,0.290,-2.142,16.227,0.016,2.546,9.645,0.015,0.000,0.000,0.000,0.000,6,-0.003,0.010,786,1000,1255,930,2.655,9.430
917,0.000,-4.230,19.391,0.000,2.668,9.480,0.137,-2.142,16.227,0.005,2.541,9.660,0.168,0.000,0.000,0.000,0.000,6,-0.003,0.010,785,1002,1255,929,2.747,9.430
918,0.000,-4.230,19.391,0.005,2.647,9.437,0.076,-2.142,16.227,-0.005,2.537,9.676,0.137,0.000,0.000,0.000,0.000,6,-0.000,0.009,785,1000,1255,929,2.655,9.430
919,0.000,-4.230,19.391,0.000,2.702,9.456,0.320,-2.142,16.227,0.000,2.587,9.681,0.229,0.000,0.000,0.000,0.000,6,-0.001,0.010,785,1001,1255,928,2.655,9.430
920,0.000,-4.230,19.391,0.016,2.755,9.497,0.320,-2.142,16.227,-0.005,2.570,9.674,0.320,0.000,0.000,0.000,0.000,6,-0.002,0.010,785,1001,1255,929,2.655,9.430
921,0.000,-4.230,19.391,-0.005,2.714,9.470,0.168,-2.142,16.227,0.000,2.496,9.674,0.229,0.000,0.000,0.000,0.000,6,-0.002,0.010,786,1000,1256,929,2.655,9.430
922,0.000,-4.230,19.391,0.005,2.661,9.425,0.046,-2.142,16.227,0.000,2.462,9.679,0.168,0.000,0.000,0.000,0.000,6,-0.002,0.010,785,999,1255,930,2.564,9.430
923,0.000,-4.230,19.391,0.005,2.673,9.470,0.229,-2.164,16.227,0.005,2.525,9.672,0.259,0.000,0.000,0.000,0.000,6,-0.002,0.010,785,1000,1255,929,2.655,9.430
924,0.000,-4.230,19.391,-0.005,2.618,9.487,0.320,-2.164,16.227,0.005,2.570,9.698,0.259,0.000,0.000,0.000,0.000,6,-0.002,0.010,785,1000,1255,929,2.747,9.430
925,0.000,-4.252,19.391,0.000,2.635,9.473,0.443,-2.164,16.227,0.005,2.556,9.672,0.107,0.000,0.000,0.000,0.000,6,-0.002,0.010,785,1000,1255,929,2.655,9.430
926,0.000,-4.252,19.391,0.016,2.661,9.470,0.290,-2.164,16.227,0.000,2.530,9.662,-0.015,0.000,0.000,0.000,0.000,6,-0.002,0.010,780,1000,1256,929,2.655,9.339
927,0.000,-4.252,19.391,-0.005,2.697,9.466,0.198,-2.164,16.227,0.000,2.532,9.652,0.000,0.000,0.000,0.000,0.000,6,-0.001,0.010,785,1000,1255,929,2.655,9.430
928,0.000,-4.252,19.391,0.000,2.707,9.468,0.046,-2.164,16.227,-0.005,2.525,9.648,0.198,0.000,0.000,0.000,0.000,6,-0.001,0.011,785,1000,1255,929,2.564,9.430
929,0.000,-4.252,19.391,0.000,2.676,9.470,0.015,-2.164,16.227,0.000,2.520,9.667,0.229,0.000,0.000,0.000,0.000,6,-0.001,0.010,785,1000,1256,929,2.564,9.430
930,0.000,-4.252,19.391,0.005,2.668,9.451,0.198,-2.164,16.227,-0.005,2.537,9.657,0.137,0.000,0.000,0.000,0.000,6,-0.001,0.009,786,1000,1256,929,2.655,9.430
931,0.000,-4.252,19.391,0.000,2.692,9.444,0.351,-2.164,16.227,0.005,2.565,9.645,0.259,0.000,0.000,0.000,0.000,6,-0.001,0.010,782,1000,1254,929,2.655,9.430
932,0.000,-4.252,19.391,0.005,2.731,9.473,0.412,-2.164,16.227,-0.005,2.599,9.657,0.381,0.000,0.000,0.000,0.000,6,-0.002,0.010,785,998,1254,929,2.655,9.430
933,0.000,-4.252,19.391,-0.016,2.700,9.437,0.381,-2.164,16.227,0.000,2.575,9.655,0.290,0.000,0.000,0.000,0.000,6,-0.002,0.010,785,1000,1258,929,2.655,9.430
934,0.000,-4.252,19.391,0.027,2.676,9.411,0.412,-2.142,16.227,0.000,2.570,9.679,0.229,0.000,0.000,0.000,0.000,6,-0.002,0.010,786,1000,1259,928,2.655,9.430
935,0.000,-4.252,19.391,0.000,2.707,9.480,0.320,-2.142,16.227,0.005,2.558,9.700,0.290,0.000,0.000,0.000,0.000,6,-0.002,0.010,785,1000,1253,928,2.655,9.430
936,0.000,-4.252,19.391,0.000,2.731,9.506,0.290,-2.142,16.227,0.000,2.508,9.662,0.229,0.000,0.000,0.000,0.000,6,-0.001,0.010,785,1000,1252,930,2.655,9.430
937,0.000,-4.230,19.391,0.005,2.709,9.461,0.259,-2.164,16.227,0.000,2.489,9.664,0.198,0.000,0.000,0.000,0.000,6,-0.002,0.010,785,1001,1258,929,2.655,9.430
938,0.000,-4.230,19.391,-0.005,2.666,9.420,0.259,-2.164,16.227,0.005,2.518,9.664,0.320,0.000,0.000,0.000,0.000,6,-0.001,0.010,785,1000,1259,928,2.655,9.339
939,0.000,-4.230,19.391,-0.005,2.711,9.449,0.412,-2.164,16.227,0.000,2.582,9.655,0.290,0.000,0.000,0.000,0.000,6,-0.001,0.010,785,1000,1259,929,2.655,9.430
940,0.000,-4.230,19.391,0.005,2.764,9.482,0.412,-2.164,16.227,0.005,2.594,9.667,0.504,0.000,0.000,0.000,0.000,6,-0.002,0.010,785,1000,1253,930,2.655,9.430
941,0.000,-4.230,19.391,-0.005,2.666,9.454,0.290,-2.164,16.227,0.005,2.553,9.669,0.687,0.000,0.000,0.000,0.000,6,-0.002,0.010,786,1000,1255,928,2.655,9.430
942,0.000,-4.230,19.391,-0.005,2.649,9.432,0.229,-2.164,16.227,0.005,2.549,9.695,0.687,0.000,0.000,0.000,0.000,6,-0.002,0.010,785,1000,1256,928,2.655,9.339
943,0.000,-4.230,19.391,-0.005,2.757,9.490,0.351,-2.164,16.227,0.000,2.589,9.707,0.534,0.000,0.000,0.000,0.000,6,-0.002,0.010,788,1000,1255,932,2.655,9.430
944,0.000,-4.230,19.391,0.005,2.752,9.523,0.443,-2.164,16.227,-0.005,2.510,9.707,0.504,0.000,0.000,0.000,0.000,6,-0.002,0.010,785,1003,1255,929,2.747,9.430
945,0.000,-4.230,19.391,0.005,2.692,9.482,0.412,-2.164,16.227,-0.005,2.496,9.700,0.473,0.000,0.000,0.000,0.000,6,-0.002,0.011,785,1000,1255,927,2.655,9.430
946,0.000,-4.230,19.391,-0.005,2.747,9.480,0.320,-2.164,16.227,0.000,2.620,9.686,0.595,0.000,0.000,0.000,0.000,6,-0.001,0.010,785,1000,1256,925,2.564,9.430
947,0.000,-4.208,19.391,0.000,2.764,9.470,0.412,-2.164,16.227,0.000,2.561,9.691,0.565,0.000,0.000,0.000,0.000,6,-0.002,0.010,785,1000,1255,933,2.747,9.430
948,0.000,-4.208,19.391,-0.016,2.767,9.502,0.473,-2.164,16.227,0.000,2.534,9.724,0.473,0.000,0.000,0.000,0.000,6,-0.002,0.010,788,1000,1255,933,2.747,9.522
949,0.000,-4.208,19.391,0.000,2.731,9.506,0.412,-2.164,16.227,0.005,2.582,9.717,0.565,0.000,0.000,0.000,0.000,6,-0.001,0.010,785,1001,1255,927,2.655,9.430
950,0.000,-4.208,19.391,0.005,2.702,9.497,0.473,-2.164,16.227,0.005,2.585,9.679,0.687,0.000,0.000,0.000,0.000,6,-0.001,0.010,785,1000,1255,927,2.747,9.430
951,0.000,-4.208,19.391,0.000,2.666,9.466,0.412,-2.164,16.227,0.000,2.570,9.655,0.626,0.000,0.000,0.000,0.000,6,-0.002,0.010,785,1000,1256,928,2.747,9.430
952,0.000,-4.208,19.391,0.000,2.709,9.451,0.504,-2.164,16.227,0.000,2.551,9.655,0.626,0.000,0.000,0.000,0.000,6,-0.001,0.010,785,1001,1255,929,2.747,9.430
953,0.000,-4.208,19.391,-0.005,2.793,9.478,0.565,-2.164,16.227,-0.016,2.558,9.662,0.626,0.000,0.000,0.000,0.000,6,-0.001,0.010,785,1000,1255,928,2.655,9.430
954,0.000,-4.208,19.391,0.000,2.759,9.494,0.656,-2.164,16.227,0.005,2.568,9.681,0.778,0.000,0.000,0.000,0.000,6,-0.001,0.009,785,1001,1255,929,2.655,9.430
955,0.000,-4.208,19.391,-0.005,2.676,9.502,0.626,-2.164,16.227,0.005,2.568,9.712,0.717,0.000,0.000,0.000,0.000,6,-0.004,0.010,787,1001,1255,928,2.655,9.430
956,0.000,-4.208,19.391,0.016,2.733,9.482,0.595,-2.164,16.227,-0.005,2.549,9.664,0.656,0.000,0.000,0.000,0.000,6,-0.003,0.010,785,1001,1255,929,2.655,9.430
957,0.000,-4.186,19.391,0.000,2.767,9.449,0.626,-2.142,16.227,0.005,2.606,9.640,0.931,0.000,0.000,0.000,0.000,6,-0.002,0.010,785,1000,1255,929,2.747,9.430
958,0.000,-4.186,19.391,0.000,2.680,9.420,0.534,-2.142,16.227,0.000,2.606,9.681,1.053,0.000,0.000,0.000,0.000,6,-0.001,0.009,785,1000,1255,928,2.747,9.430
